seconds_elapsed,accel_x,accel_y,accel_z,gyro_x,gyro_y,gyro_z
0.086267578125,-1.0216142070516945,-0.0119341834217309,-1.6338754597961902,-0.0896018221974372,-0.0512611269950866,0.1162977740168571
0.106267578125,-0.7370704302268626,0.2693139052801973,-1.2905979798765064,0.06247822367690656,0.03934322229307858,0.14321592393185864
0.126267578125,-0.5763113143642414,0.32128950367643344,-0.627720737697981,-0.010127240568513182,-0.09600150780575716,-0.14949586535812512
0.14626757812500002,-1.3716965047656766,0.15847916148100105,-1.74125871367363,-0.006322361030883116,0.02871154862907081,-0.042422976497742834
0.166267578125,0.31248177778905506,0.36623623899098445,-1.6596619095433403,0.11894723438945091,0.012421079392436803,0.26600179140760477
0.186267578125,-0.24805667348861257,-0.9321570204223426,-1.2388854639544986,0.030674203057661904,-0.09692578512928343,-0.05809268030371629
0.20626757812500002,-1.4292321595905035,-0.29974820541276453,-1.18710710526624,0.025387411052802237,0.06686765098487635,-0.29913429082201143
0.22626757812500004,-1.218155508869403,0.6349855538124786,-0.4346567143466249,0.0889820287851019,-0.08353496194706059,0.17968331459793488
0.24626757812500003,-1.0912077087560144,0.04181406423123705,-1.0825347946048045,0.16849343767342015,0.02597478361646167,0.18698477879126085
0.266267578125,-0.673622599037382,-1.697815008903316,-0.3640108813321046,-0.05589185084115465,0.011859838053196762,-0.2522204306417285
0.28626757812500003,-0.8813107322459793,-0.6661777918323277,-0.15163916053705845,0.09310232359790023,0.040845272664795734,-0.12859319992287968
0.30626757812500005,-0.3656345401548199,0.23437224129729975,-0.3828153952063727,0.07313030930304111,-0.026086173210996717,0.2165704976236941
0.32626757812500007,1.0379969317100133,-1.420203612458971,-0.6830238585812023,0.008045920005464533,-0.03319141802745296,-0.08625284775435829
0.34626757812500003,-0.7483285030803666,-1.5690110979431073,-0.5276429861469081,0.007710672154011638,-0.013585125385561095,-0.3622303993209019
0.36626757812500005,-0.6188883833405434,-0.21776538943164186,-0.056861490160378475,-0.005413339876832857,0.10615838820447016,0.1949377158273832
0.38626757812500007,-0.9416830912783666,-0.09497419172244682,0.7069479620419767,0.13641356061144752,-0.15212907899129982,0.14276520501271808
0.40626757812500003,-0.15898598515547227,-1.456710521004455,-0.5753342278201209,-0.07654494360353603,-0.02085600502902914,-0.23082186506574687
0.42626757812500005,-1.254509458670293,-0.5409279884133684,-0.9080326502641092,-0.053221049546666926,0.17950139326771752,-0.2517228398155159
0.44626757812500006,1.3452439402516125,0.2705655591874384,0.40683617743943296,0.0033451636298539996,-0.18764069853887566,0.09131608744783869
0.4662675781250001,-0.0883337645703836,-0.5181077586067901,-0.3846964748385389,0.0360081724775481,-0.008984075888491002,-0.020379473280097034
0.4862675781250001,-0.08383218035213975,-1.0646026755128242,-0.37425064482644094,-0.12943528440681995,0.046598850135189496,-0.22073294356586964
0.5062675781250001,1.4034108379154393,0.441213357770872,-0.3519803750792714,0.011595412544572043,0.04474733597220833,-0.05544231433526421
0.5262675781250001,0.021551067244453416,0.8986162173509061,-0.6108717728956828,-0.01916344632276769,-0.0002483784570014035,0.021348007676572845
0.546267578125,1.082073034359186,-0.4483743013041909,0.1995253142004883,-0.10564798928466142,-0.08933198311420218,-0.0742604686137331
0.5662675781250001,0.28654365059889997,0.3152712985710666,-0.7163131706514547,0.03621585152948762,-0.026785211464886823,-0.19337407935672526
0.5862675781250001,0.39616702148283756,0.6085454510745713,-0.5259314547340386,-0.16986658882570277,0.08548512243966105,0.017340996612186275
0.6062675781250001,0.4385254835700259,0.8496256324646643,-0.7608251709057912,0.09550123647319576,0.01772858156128602,0.001005076761117945
0.6262675781250001,2.218439471846119,-0.3462533176724116,0.4185365807880469,-0.1716230912265018,-0.13140967911422327,0.01717869385465131
0.6462675781250001,-0.4305009782596219,0.4866189584836705,-1.9193320258208737,0.08021186861728422,0.13926860258546864,-0.23066147112200638
0.6662675781250001,0.8282145480745859,0.7446956990000102,0.10928740124300233,-0.17550953968650887,-0.06969289733243154,0.1705146027352431
0.686267578125,0.46135394632984805,0.9293668170107269,-0.9587873294447614,0.1952256478700578,0.019071631376877642,0.0809764167602565
0.7062675781250001,1.1841764921732885,-0.17839175148928377,-0.34988960996812635,-0.20088243437468198,-0.03242498351667502,-0.13166844688493493
0.7262675781250001,-1.0335660004823908,1.0593809879841445,-1.5707290829860034,0.1154852764576241,0.09363702593973927,-0.12392746576236131
0.7462675781250001,0.6921523012334405,1.128046865861835,0.09709303623471857,-0.07540575541444569,-0.036496227303244554,0.28381240099007077
0.7662675781250001,0.016645416904903322,0.164151209917969,-1.2473615904354767,0.13979122267851804,0.06697380750333347,-0.03956883619604368
0.7862675781250001,0.13583965616528262,-0.33328341784552845,-0.14731802072556982,-0.13529371491758202,-0.05515706666568634,-0.21342411278867396
0.8062675781250002,-0.12273103214189282,1.2307867833082593,-0.9909895297446306,0.13152097383280284,0.15852670060639942,0.12633099147413368
0.8262675781250002,0.48879089863913416,0.34278876773659933,0.2533952700081239,0.00526604155726417,-0.09169620439603426,0.17153084735012492
0.8462675781250002,-0.06787572900464435,-0.6738136519899502,-0.8545394333343077,0.046042179222985646,0.06312653191914938,-0.16088553571392536
0.8662675781250001,0.37083322510701555,0.387446045515501,0.017882391091314384,-0.04496557104232959,0.041222172123041266,-0.03077812631612606
0.8862675781250001,-0.1470670325716225,0.4545079497825236,-0.2994862346623715,0.15283530889524022,-0.06662423803179708,0.20067137750771907
0.9062675781250001,-0.4962219546515808,-0.4837925485764428,-0.12121173460966907,-0.02180384648260489,0.04609202736710896,0.013672306052375958
0.9262675781250002,-0.08881416016258693,-0.27737273714268,-0.25592299798333124,0.013076586915719892,0.06455897033241752,-0.1337888984672865
0.9462675781250002,-0.17611470676245902,0.17780534761472974,0.27975774100797374,0.050080684129278456,-0.06872281095677918,0.09044562763734998
0.9662675781250002,-0.048127741785531954,-0.28254178239925404,-0.35535860431579475,0.03371429934450823,0.018908219453889537,0.09967063539277851
0.9862675781250002,-0.040722564914161055,-0.826225612858764,0.07579872752065359,-0.00666039117963618,0.017625382197018157,-0.13195124593620913
1.0062675781250001,0.06367230881597977,-0.05631031967660593,0.2896903900168835,0.00467850548609971,-0.028219954698449668,0.0023342727570428443
1.0262675781250001,-0.26241806465743467,-0.05225913786227361,-0.05499688573860835,0.06903995002993009,-0.000391840630576541,0.1603028331692413
1.0462675781250002,0.25793777006413776,-0.8670979883000334,-0.10956091293209859,-0.02287891442954764,-0.02117907182838345,-0.02178753021054958
1.0662675781250002,0.0149857021129082,-0.6198341379372513,-0.2950463170974191,-0.006292630828898256,0.10679257788154024,-0.11745239851185664
1.0862675781250002,0.6337616482778784,-0.049874780201955855,0.07679279528533277,-0.0008209172253553687,0.009616388665001903,0.1034666164928224
1.1062675781250002,0.1354249776175073,-0.7053403467683874,-0.18039141583134616,0.05485636964428343,-0.04867883436515545,0.04626400439543367
1.1262675781250002,0.41949860843540676,-0.9297080143546821,-0.35663914167136035,-0.052105282203268224,0.06302655808922938,-0.09285891597858345
1.1462675781250002,0.4259665194735343,-0.21317422698031932,-0.22650844412126347,0.01417824992285206,0.06662624635341903,-0.016687958885184866
1.1662675781250003,0.6157137246041477,-0.28939735696176716,-0.05507935386207608,0.041008863374181095,-0.06775141113996137,0.09244616099453827
1.1862675781250003,0.23749544817427826,-0.7715968043233254,-0.5449451218734476,-0.0022612351954184678,0.06737349769802778,-0.038172549481646084
1.2062675781250003,0.8525690913734529,-0.5070154276990515,-0.11255858320497092,-0.007457813320175608,0.0004969846860628998,-0.09240827339522986
1.2262675781250003,0.6270018678995964,0.07038258955654572,-0.39718526057312564,0.04624024121825742,0.09578188584424764,0.060132630215051504
1.2462675781250003,0.8558223336965608,-0.17612478075138843,-0.05240448866374499,0.003238833639816841,0.07459111922884377,0.04792437477991992
1.2662675781250001,0.49270635855019385,-0.3041146885290465,0.22968725773045848,0.0144079680311567,0.002325454769354598,-0.11312049340326803
1.2862675781250001,0.6777626521999508,0.3494559681056906,0.2732399287342097,0.007319081386696734,0.015502150952260542,0.031102730467211803
1.3062675781250002,0.6617733849097267,0.4064769714551568,0.15197353895258547,0.03952370482156587,0.09462950913370466,0.12742433764538771
1.3262675781250002,0.5879741684161661,-0.2750538923919699,0.6158597008536023,-0.013970496642292623,0.0009974459008125448,-0.057742649407225295
1.3462675781250002,0.5222094895225338,0.19453597413527418,0.06126428742338669,-0.007149789561720156,0.056234712662298396,-0.055147483110760905
1.3662675781250002,0.659775132032653,0.5216546254857163,0.37843961240762414,0.007152300212644579,0.03773699506404032,0.11679277522760566
1.3862675781250002,0.6592038210039051,0.15447861224813775,0.42380822610402985,0.016049906344926115,-0.006719106349673335,0.01593868779631985
1.4062675781250003,0.8062252651588042,0.16837189591318638,0.14643388932938917,-0.04572416951765582,0.08045020399275757,-0.052631162708078896
1.4262675781250003,0.8563745204940797,0.5962065334145945,0.6153011148453943,-0.0075459265585187535,0.02416439936771934,0.06640686971508385
1.4462675781250003,0.47116320267553025,0.5841297411445294,0.6110109596717543,0.015371335897526161,-0.017414520191746347,0.06449575458793405
1.4662675781250003,0.313266550466964,0.3723797756703713,0.21153262777401438,-0.04920957954015874,0.00011515993217055082,-0.03470428756656256
1.4862675781250003,0.18986443317217463,0.6730407437427331,0.2595731294235181,-0.00503945438252161,0.035595600690021066,0.03673362652359257
1.5062675781250003,0.15725018496714843,0.6040514458419638,0.2447262934507794,0.003219118751003275,-0.009495332515554978,0.07536889826491153
1.5262675781250004,0.30719407381755154,0.09621594462779653,-0.12759687854005747,-0.018207792221498622,0.051954705799859016,0.008475199286906458
1.5462675781250004,0.44961407169545536,-0.05767852244252816,0.041314562747897826,-0.011575394850282921,0.0041026679652140935,-0.017355236941782714
1.5662675781250002,0.5495139998727686,-0.17946307915099363,-0.31714666749532167,0.037046690564388036,-0.013583525653087932,0.07963136351048243
1.5862675781250002,0.6235753065794595,-0.5772642139812834,-0.5435701519974206,-0.001696833719080171,0.0930971339663182,0.04286055634957038
1.6062675781250002,0.5869469384531366,-0.6306628988760971,-0.25601044117543215,-0.003677320536819779,0.05643140866339177,-0.11670518701590711
1.6262675781250002,0.7596151548861518,0.21253163559855626,-0.1686540267634805,0.027175684917070262,0.029650396822692535,0.017927696618164977
1.6462675781250002,1.0579070391043903,0.05924711168456748,-0.2455519667019685,0.0731300044250905,0.015366288207561276,0.18698641178839676
1.6662675781250003,0.48249088387480876,-0.9044532184418956,-0.46278561547566643,0.048170795822137576,0.04254624835828638,-0.03794956881034402
1.6862675781250003,-0.08791527203118883,-0.7532119968246636,-0.37357564673599475,0.005119970840256973,0.09614596454047326,-0.13230746265124618
1.7062675781250003,-0.19864033802942682,0.07214391036004081,0.05370287822750111,0.0886138605431743,0.05421314876117052,0.07218969330503956
1.7262675781250003,0.3417492171408555,-0.3496749486139502,0.08254601871359417,0.08586000076837709,0.039193653938672246,0.12202468156331846
1.7462675781250003,0.4030398863617784,-1.063714285622739,0.21494272126674507,0.021278336614233003,0.08695511392004979,-0.1605966636678879
1.7662675781250003,0.5729609525591711,-0.3158264105675006,0.6887272492275901,0.031299428420844606,0.05816246112523813,-0.03835011841031833
1.7862675781250004,0.566290417640913,-0.5343872365526489,0.49206264194737614,0.11542304385034306,-0.04129639093348663,0.18546203036318387
1.8062675781250004,-0.08959691326412557,-1.6125727953772437,0.2916782176329699,0.001215864862986354,0.021817222631190143,-0.09462620641746584
1.8262675781250004,0.7172021634956217,-0.7627145603475736,0.05247442489649322,-0.0023289074892929927,0.1201546592776675,-0.1611717550693319
1.8462675781250004,1.7373144920866503,-0.06526976602738097,0.8196893424071986,0.058094735233431144,-0.019027639256602506,0.1788405078189224
1.8662675781250004,0.9241536850579047,-1.1238922328346104,0.3850125668397392,0.050205343965356385,-0.01890833899784244,0.07411728822965395
1.8862675781250005,0.7952186404687671,-1.3431736126174816,0.05879459530693052,-0.04999437382229553,0.09057016058127969,-0.19044243605040254
1.9062675781250003,0.37842991160325273,-0.11375198311359837,0.4185057632069132,0.006525052520764659,0.034561167340479086,-0.019216958753022782
1.9262675781250003,1.4858197031591702,0.08564587081057591,0.34547730159037954,0.04826431988261148,0.024002489269081082,0.2706969347381262
1.9462675781250003,0.4605513346451885,-1.1861863626464848,-0.05830908564038132,0.0016648718887861617,-0.05451859488262552,-0.1521319990420612
1.9662675781250003,0.21248287943942615,-0.5802790062709458,-0.3050101267897261,-0.08162602506894716,0.1770072900983358,-0.11367166781016791
1.9862675781250003,0.6670336157805715,0.3064560959442358,0.7128631664524274,0.07348047845031623,-0.030524189753934193,0.170176059925802
2.0062675781250006,0.6655849553079937,-0.4884829192699206,0.3288965796936642,-0.0013736978960329177,-0.02972175115810401,0.044816885456191106
2.0262675781250006,0.10433929887043723,-0.550567145853923,-0.4012140483299691,-0.04483653015634047,0.10335176486812682,-0.20054134246805433
2.0462675781250006,0.860933127639687,0.4142847541395993,0.34817895912178154,-0.010006124673455054,0.007646417227218256,0.07647916138882292
2.066267578125,0.036300284392200816,0.2048300210360052,0.11143141894314933,0.0695650740911869,0.01982892686974418,0.13469392049422715
2.086267578125,0.1449318401940575,-0.5223974783373805,0.07154071920062478,-0.07659913263633553,0.03815110170443445,-0.11882182557705401
2.106267578125,0.25876120517088214,0.43783528699817836,-0.04977662040080012,0.008346259054451027,0.07463527153906678,-0.06318620275606067
2.1262675781250002,0.28785679246171586,0.6825335428241549,0.4725241782367611,0.023233837178751337,-0.05087946179685735,0.17627098163649274
2.1462675781250002,-0.44586243370079176,-0.245336649338555,-0.14939827530761618,0.01359321911893252,0.04027361855690272,-0.00791171130023436
2.1662675781250003,-0.33016656348495904,-0.10337738424848297,0.18441558602784192,-0.066188872955242,0.05182172255241911,-0.17684496331821142
2.1862675781250003,-0.008238061604024823,0.9565593563089487,0.2098153371519262,0.03638612319002949,0.002150186191399244,0.06508888755568727
2.2062675781250003,-0.22659699780415152,0.6409156866152782,0.29612521403775127,0.015757466986123417,-0.026279007651588738,0.08985945077059546
2.2262675781250003,-0.30300623836739077,0.17038296866799013,-0.06743988213842171,-0.028601568480951623,0.07033476613575189,-0.12485272557117823
2.2462675781250003,0.03878008318895465,0.6954201106146103,0.37503073803583786,-0.028606272239435307,0.003755305235103038,-0.07221010426247562
2.2662675781250003,0.02853371643230936,0.8597871101662506,0.5333044793318259,0.019929845455363363,-0.023668905422665983,0.0877920075825613
2.2862675781250004,0.279472957752176,0.6257488029736565,0.12997947691889336,-0.025486761261368514,0.0451231659176139,-0.03125650567827978
2.3062675781250004,0.7421138866688517,0.7401843900166862,0.34395740623797616,-0.05877422556288776,0.03225820014904298,-0.053512668160676256
2.3262675781250004,-0.29794143018442104,0.6060199697340525,0.4232224030097401,0.015881800954455072,-0.061915824487052136,0.02094949339157671
2.3462675781250004,-0.2979367068362255,0.38651001265046964,-0.07477712608437156,-0.03918681288239996,0.022740942586004096,0.0669465163205242
2.3662675781250004,0.40342723663445096,0.2692300204435192,-0.24449353748617322,-0.029721153603393016,0.009595852681146039,-0.07025962050247425
2.3862675781250005,-0.25148369379821817,0.2727598294235301,0.25354916998457133,-0.050451294924590086,-0.028164013805776877,-0.06197582073832379
2.4062675781250005,-0.3264645438207577,0.7063140737538671,-0.2911754602118286,0.01586802492148259,0.012175029918022905,0.10156255215151822
2.4262675781250005,0.22596847188703661,-0.007069116018956209,-0.42977898246445373,-0.03468571809267973,-0.036709885273964835,-0.004550662926506628
2.4462675781250005,-0.3747591061258848,0.08398668655551919,0.16845625459725186,-0.07839871578013508,0.06841402144106395,-0.19885342426102798
2.4662675781250005,0.8200810885681044,1.7143793026574008,0.2814763195641532,-0.021187944237252863,-0.019152581042011306,0.006344581297085052
2.4862675781250005,1.099403638493416,1.6105060441523862,0.27108698101946155,0.0007268237615326894,-0.03106753019389118,0.1922575741678906
2.5062675781250006,0.5875076432961109,0.46894757560872646,0.08057221136361487,-0.036249169505596965,-0.01720431753635542,-0.009225576619804644
2.5262675781250006,-0.8744245457632103,0.3012991625220897,0.28074905707562653,-0.08290647109402752,-0.02326893589722718,-0.15804659913195124
2.5462675781250006,0.2298485662601039,1.4224958740917049,-0.03937593309019046,-0.025391876656464692,0.041725081868260176,0.1622343277019065
2.5662675781250006,0.0282873010602709,0.35086634952989665,0.45805901910033653,-0.02153564929310924,-0.08216756849022663,0.11428228648070826
2.5862675781250006,-0.4352629429682552,-0.4021850490106068,-0.3868659990260673,-0.07646881800233302,-0.008965491564072725,-0.15462025527133155
2.6062675781250007,-0.1488103190989049,0.17815270124019256,-0.2174667573597825,-0.09626590685117986,0.044498059690190016,0.038141099285693335
2.6262675781250007,0.06893578925763277,0.0031152332191542414,0.035963628128304385,0.019968678766836945,-0.05407711120347304,0.1712583674012087
2.6462675781250007,0.05486445037171844,-0.45583742135027644,-1.2940907667451098,-0.04793653816185582,-0.07051211315423117,-0.10090020017153509
2.6662675781250007,-0.05928443843980405,-0.14594989537094633,-1.3817848477362888,-0.08684772060783966,0.08815021189832166,-0.04233872441347982
2.6862675781250003,0.4117096501274316,0.21036305767478197,-1.345604473555745,0.11377557992060593,-0.08984515109679832,0.15927918350478074
2.7062675781250003,-0.5706689016728148,-1.2042607764051765,-1.345793587680873,-0.03633043120262977,0.001034098735304159,0.02604599457909582
2.7262675781250003,-0.5825043481928265,-0.4987582485052493,-1.007284369360031,0.028524462689461513,0.07332622092753308,-0.19828776084893684
2.7462675781250003,-0.5151833878673978,0.5286743540831451,-0.11026216235343533,0.04222682156859112,-0.09777581440484905,0.060893496658968725
2.7662675781250003,-0.9920808336722837,-0.052921912279290696,-1.0432329930667301,0.14097724759284624,0.031000039535902593,0.21827067682982398
2.7862675781250004,-0.20316794060385293,-1.7068241170816434,-1.0672103419386822,0.026697980439040064,-0.06867545380771907,-0.08503554138973803
2.8062675781250004,-1.4300600879713408,-1.3755237744950677,-0.8981818343808966,0.02502718795179909,0.14599648851959013,-0.2619543220581655
2.8262675781250004,-0.32124341710993415,0.21829984576340455,0.6502174475868124,0.05232766998909004,-0.04993114484999313,0.04339136409793993
2.8462675781250004,-0.26731661887378594,0.130674995067254,-0.23569985439984548,0.1431534644408512,0.027454964944701333,0.1607015755706796
2.8662675781250004,-1.057705310956117,-1.3149470499179756,0.3756182133289909,-0.03175936771558934,-0.019246619157371796,-0.166439151074528
2.8862675781250005,-0.44269569298430905,-0.5535829255203175,0.4332959739056334,0.022930515244345435,0.029755887930322307,-0.13257346321298139
2.9062675781250005,-0.002453972423008145,0.4001577631305912,0.8815978944677533,0.029972538520066087,-0.05338114182505694,0.10232518320440717
2.9262675781250005,0.3826250704097911,-0.009280494041293639,-0.0920786435003616,-0.00053180006138342,-0.01638395258543211,-0.019724693807435852
2.9462675781250005,-0.5978328955271338,-0.43912807048962216,0.31173970729538486,-0.04997021334979814,0.015621298045745687,-0.15577973361846503
2.9662675781250005,0.49807473088702336,0.16294687396171775,0.2693525003536365,-0.0167114334347103,-0.0016063664667659223,0.09682076696464191
2.9862675781250005,-0.2889584158179183,-0.44435039393487075,1.158940432391853,-0.044821835983139505,-0.06427921787327295,0.01700288413895929
3.0062675781250006,-1.010321686166274,-0.023466595431541223,-0.13152702632938634,-0.04178838788320065,-0.1235970191222053,-0.24453605560840944
3.0262675781250006,-0.4683778388604889,0.8628328236024585,-0.7781246694128987,-0.12012249498391256,0.19670565336019857,0.1142634266349731
3.0462675781250006,0.21712881275799265,0.23814853207427542,0.39949559388915346,0.02271254614729573,-0.14512300315507976,0.03257609186182419
3.0662675781250006,-0.3657715268654309,-0.11958726630333552,-0.7280304916468199,-0.11763770427785575,0.0342730663608109,-0.22839550614579535
3.0862675781250006,-0.2536979719459316,1.034627091788974,-0.14565051773445967,-0.08831329819946886,0.01373395926096899,-0.01941958762813172
3.1062675781250007,-0.23074953262130507,1.2691795226735392,-0.12940961175060622,0.04902196716002752,-0.02405492504715433,0.1614922419355959
3.1262675781250007,0.8267200213825486,0.32883022600237105,-0.5608179965993184,-0.11506527035228004,0.013797792310454901,-0.04954447263873978
3.1462675781250007,0.1679480970272344,0.8356600365122911,-0.2882078695989628,-0.04748930019061692,-0.008523709769918527,-0.18646084169737845
3.1662675781250007,1.4299845817729009,1.7458881450569208,0.10570094682894901,-0.03110848433694106,-0.08220953249393728,0.2022790009038985
3.1862675781250007,-0.7705124528242657,1.0464531805574933,-0.7820009175074929,0.037754389959267436,-0.03774585522792198,0.03791643758579358
3.2062675781250007,0.0004699586772140224,0.460816647635485,0.016918058930431912,-0.16478005333093512,0.03795767097608844,-0.0825341625516022
3.2262675781250008,1.0282219928240564,1.6760690322106118,-0.22320557546937767,0.07735808937994217,-0.07892512139305681,0.06026942130138819
3.2462675781250008,0.7055379951915044,1.0426747137246102,-0.17260088215714475,-0.08705530432811052,-0.019409603516026004,0.187866436897547
3.266267578125001,-0.500321301269252,0.8653971181004129,-0.7453205947376835,0.01808339344593755,0.015088278753565772,-0.08650450311505341
3.286267578125001,-0.42192844219327963,0.8869503431190346,0.061606097053676354,-0.09522623864882097,-0.042486525928477965,0.05912294081866614
3.306267578125001,0.18962089383434463,0.9820079481117221,-0.6223673594765677,0.10331400735905567,-0.0936327549626333,0.1824725171434476
3.326267578125001,-0.06423710366167142,-0.0603247762435348,-0.6000375591994246,-0.07923323879891786,0.0020243441554650076,0.01939586235571459
3.3462675781250004,-0.3860248723610514,0.3193091231494526,-0.9704247937960676,0.02991634762884434,0.02009026055306769,-0.07584249142977909
3.3662675781250004,0.27292241884586155,0.5412092597342635,0.0074724930424942045,0.0035783046094392907,-0.15891809404141785,0.19068998205909354
3.3862675781250005,-0.569619567923836,0.204847920212351,-0.8649900277730921,0.09446095453125146,-0.011064290457974234,0.07346683278815766
3.4062675781250005,-0.24762476420195895,-0.3142431791873887,-0.41109562664380883,-0.08466455194742561,0.04471672062812408,-0.03034045487996194
3.4262675781250005,-0.6362265038016288,0.3633106078879009,-0.09447170234265109,0.09150325379140661,-0.06494895602322277,0.0055303749911748325
3.4462675781250005,-0.40840777295801917,0.3205123159167378,0.04192381806724196,-0.0040594849018684015,-0.05963193752604324,0.17211311919874103
3.4662675781250005,-0.9076355905684166,0.19202083829887787,-0.6585103125923513,0.050888014520844196,0.14079379564443908,0.024691601549289406
3.4862675781250005,-0.20547412564661177,0.015410931848926803,0.6202737497907115,-0.055483106843754786,-0.059885053377166486,-0.009348405041618027
3.5062675781250006,-0.8285130369611731,0.5835941292614457,0.04537551186606286,0.06909511506691628,-0.0217958539986788,0.05284796290979698
3.5262675781250006,-0.6146097253034649,-0.18175911297430886,0.5920696671456878,-0.0607368445199582,-0.08375290536789935,0.09004518500005991
3.5462675781250006,-0.9802796426089451,-0.006681313934387017,-0.1270724384218572,0.019692430146385744,0.06015047309519632,-0.05238091827729797
3.5662675781250006,-0.37196836167275854,-0.049214299324471904,0.4297539756513955,-0.1043658694598213,-0.037489809812329765,0.03228307675483812
3.5862675781250006,-0.3597398528588999,-0.05340539132615908,-0.24664500668753836,0.03824352209149822,0.0014844603372455517,0.06470925895356619
3.6062675781250007,-1.0155641635038555,-0.5710085183498674,0.12137089799673695,-0.12931558574854238,0.014890778388347842,-0.05399330092556516
3.6262675781250007,-0.7317729402503353,0.1433983724045886,-0.5340404591804884,0.0003223602972605161,-0.0009393659556623184,-0.04238264703023821
3.6462675781250007,0.2178182552000045,0.044951830440529986,0.05001635429495145,-0.0679390255835009,-0.07551802698010406,0.13410786880669398
3.6662675781250007,-0.9837102135325589,-0.5056616741195404,-0.43258724780764585,-0.001615291264506818,-0.03644102787208354,-0.07877201688952662
3.6862675781250007,-0.33887443692157043,-0.14089642679854336,-0.5101251090612808,-0.1100780479593538,-0.00036836993027752223,-0.06708686967331684
3.7062675781250007,-0.6391965172938615,0.47905505620608235,-0.7897807792370757,0.03219322031132922,0.024103442458623562,0.06451339881962827
3.7262675781250008,-0.12330262611086933,-0.11829633883656826,-0.21615537522199674,-0.05732004087254824,-0.0654235421183928,0.01947537657727886
3.7462675781250008,-0.5303497480458126,-0.06657585594577435,-0.8139871401265638,-0.0008433135565851765,0.016139326974856896,-0.1309926808516528
3.766267578125001,-0.16679726715233698,0.3720984930774632,-0.4216453295085126,-0.045194007792567825,0.02315633147359676,0.03712007734075115
3.786267578125001,-0.16447865325778394,0.4811302229264762,-0.4438109531510876,0.05651370140102792,-0.0340855766264938,0.03251046695631051
3.806267578125001,-0.28039296979178635,-0.019050598827451932,-0.2680181125078388,-0.057991336936523835,-0.00508796146807106,-0.10433965055109158
3.826267578125001,-0.4054597095888918,0.5336195615638323,-0.4619043552846432,0.010612933695564397,0.03309825117538932,-0.06736552799559448
3.846267578125001,0.13686924305294576,0.6564193487227141,0.022787710989571785,0.010673551665800748,-0.04502104740049572,0.07548433215770209
3.866267578125001,-0.2982351123289574,0.2744360081164658,-0.29750319590536206,0.012176252861143924,0.030684260125980713,-0.055499172176278026
3.886267578125001,-0.45090260076096744,0.2896786721104179,0.16008168998152067,-0.04287517964128707,-0.00952521999726943,-0.0933675759175778
3.906267578125001,0.06647176463058446,0.9074576394611027,0.10792297478880544,0.03105533540769612,0.011552896586932742,0.04892366827360344
3.926267578125001,0.28058406071610287,0.6537621635094214,-0.0750691903456659,-0.012424581853147607,0.026156457939524362,0.027270711582475196
3.946267578125001,-0.43490937879430414,0.17271303815517156,0.04585634658599882,-0.038591234524267666,0.014490869074224637,-0.12264087515896481
3.9662675781250005,0.3755173756691635,0.8182315293167196,0.13470976374583357,-0.01287433482506417,0.016830793979298115,0.0280166990586962
3.9862675781250005,0.03675711384654987,0.6953550572113755,-0.12676397913973614,0.004962665953720415,-0.008583996896537282,0.028604211667041815
4.006267578125001,-0.09310243580147924,0.27157967094857355,-0.07595272929273332,-0.054033488553013875,0.028747033186745305,-0.07209486394746774
4.026267578125001,0.0018632177994775615,0.7798676515080336,0.017975666803673563,-0.01894399722425159,-0.005840483698983636,-0.02792758332340489
4.046267578125001,-0.03660954422646897,0.7453625081692287,0.15437960099508286,-0.0032663251430400915,-0.025311819962040925,0.0914152551572033
4.066267578125001,0.4457252348620991,0.5569332162217006,-0.40902399764120123,-0.018491653471503316,0.036605358626602184,-0.0016617376175563246
4.086267578125001,0.259103910620018,0.3957664284151387,-0.11132356104206767,-0.06562028469486336,0.024043740957464876,-0.08424616824749528
4.106267578125001,0.3854869649928484,1.0082627777990807,-0.12989819287579593,0.017437558435085872,-0.06274670476767949,0.044556104412341806
4.126267578125001,0.03445571885303268,0.34791802614117284,-0.2841318607653222,-0.029458916364210663,0.04384019730504506,0.11367828818818385
4.146267578125001,0.24599213014361704,-0.13793379017800064,-0.670575901101213,0.004970735974732183,0.028790170534049773,-0.022562222471520586
4.166267578125001,0.4983662000117459,-0.5183663389413546,-0.7638445379324265,-0.04716900555657494,0.00915357524942482,-0.013341913411768618
4.186267578125001,-1.7126760073942062,0.2722136549310857,0.08673658696323405,-0.04866828791370943,0.1606723302740549,-0.12958114702683352
4.206267578125001,0.20342682209768018,1.9372946360678502,1.12025946407616,-0.029459200761182934,-0.1426422875892343,0.021193982251961674
4.226267578125001,0.19510492045038336,2.4469596894872176,0.6452960641414555,0.03898064874322283,0.0344478467212777,0.2602931888812517
4.246267578125001,-1.6794149722183258,0.7730792809179822,1.5248981117858689,-0.11034204681979166,-0.14912196193690547,-0.17184082663207828
4.266267578125001,-1.6977708748397138,1.5829257983885296,-0.1810704528318852,-0.060134819007550286,0.0607141456622294,-0.16715302300761054
4.286267578125001,-0.45138273455400085,1.7790392661474426,0.24679221120142206,-0.037105549955302984,-0.06642837989884838,0.3688476447807842
4.306267578125,1.4352680205399193,0.6019431434875172,-0.25344903085500337,-0.035788130002014217,0.11085774537812784,0.034336215065454985
4.326267578125001,0.7303396756243868,-0.3277913710556597,0.4336123937653584,-0.217658649868487,-0.09131444831081059,-0.5049781269388158
4.346267578125,-0.5464123576313156,1.7001935749482362,-0.41368786182839035,-0.05603625473367603,0.14472837758318483,0.09911097513980638
4.366267578125001,0.9276715513256687,0.2697030158709263,-0.03801211453277797,0.016201227011106104,-0.31882361740907356,0.5285991714612757
4.3862675781250005,0.16563942676155713,-1.159672424633822,-2.574356217917187,0.012159677298556042,-0.0446991965004764,-0.18319078710823716
4.406267578125001,1.2062427724689246,-1.185068133191017,-1.9329257195735243,-0.2718078112224048,0.15721629465547832,-0.27343373915088637
4.4262675781250005,0.04657851735901459,1.221076351607717,-1.1552358551331177,0.2562967966711814,-0.20688117755994034,0.10372521443681973
4.446267578125001,-4.372712050636978,-0.1357735614829536,-1.8755235344906056,-0.03647177229293144,-0.13726704587373842,0.1387362655111921
4.4662675781250005,-0.41509256662853666,-0.9110131609259888,-2.7807426754837254,0.08264309124394392,0.36779615831104057,0.08883696756299783
4.486267578125001,3.3221257431815627,-2.3586398112094074,0.11766236849824228,0.04941622852808994,-0.23103678920518092,-0.2374642867032411
4.506267578125001,0.48391925167755667,0.30830355106749463,-2.869850604404286,0.1379893639986125,0.16155091563641308,-0.16600587458042185
4.526267578125001,-3.794391239401039,0.12880998803482727,-0.08393618269414028,0.013757355757934535,0.015106726449722179,0.04553067452258153
4.546267578125001,0.5061111341962536,0.5073252010250626,-1.9692892751989612,0.36265820749054545,0.24030826940563405,0.4390033133121406
4.566267578125001,4.084089737336805,-2.66443005778833,0.8084276952582258,-0.09924269517627143,-0.034819908565349104,-0.14648524481445407
4.586267578125001,0.9394016343069286,-1.4694369944338836,-0.6181342627136611,0.18635094903622454,0.20947608756544653,-0.43623764393253706
4.606267578125001,-0.9552182749576035,0.900259685460214,2.702335071982386,-0.06467784128604787,-0.26061472455435464,0.06902708303483328
4.626267578125001,-0.8932653882543032,1.0736263263209267,-0.0613606989964081,0.28609907188212624,0.21061312801783558,0.4621717411554864
4.646267578125001,3.2188574524861053,-1.6409696340437954,2.1062064552186404,-0.14721062759957101,-0.11036297877630216,-0.03519492925422347
4.666267578125001,0.6449610369298963,-1.0152454306312801,0.889084299893724,-0.01152434707266105,0.1560087811621859,-0.42458126006793817
4.686267578125001,-0.9354300983062375,1.5022948658432889,2.6674591679434885,-0.10799925326346668,-0.3303688506989679,-0.04447506913091654
4.706267578125001,-0.21571531377586622,1.2038973520652456,0.025516298488994133,0.028259473233822382,0.2019768892624919,0.5639684681783262
4.726267578125001,3.1731024119927205,-1.4331575503256957,2.0615455588007765,-0.16353746410085165,-0.10420317753643146,-0.08878561368819801
4.746267578125001,0.9518245979050249,-0.5945878361187874,0.24155724557927105,-0.16574353018997187,-0.0019472544443859727,-0.3953695637484907
4.766267578125001,-1.004430232189695,2.102624909611203,1.1933796993953276,-0.15554091348919888,-0.10858670290046037,0.21995740796680363
4.786267578125001,0.05341227185306325,1.0136174531350566,-0.31199883469206297,-0.01992121004592243,-0.15670948698873818,0.4434559413827596
4.806267578125001,-1.4280317056272502,-0.5473261552625557,-0.6347644095538825,-0.2070779445397427,0.011740114407268963,-0.512775116365855
4.826267578125001,0.38288542962912636,2.0617175348691474,-0.7419539475619615,-0.2515697931791957,0.20629432330485067,0.027041558302943847
4.846267578125001,-0.6066250034906645,2.3770751412911553,0.4259950668337608,0.13325760802037984,-0.36810559441815743,0.32099898443616265
4.866267578125001,-1.4605802026351569,0.046487623978092134,-1.212802606041724,-0.2602664154189148,0.13248029860466684,0.007996884461075462
4.886267578125001,-1.2974219374085074,1.3673821367686831,-0.9629058830237196,-0.054550329950859906,0.08867619708654902,-0.4463906627665972
4.906267578125001,0.5646116496085141,2.6013878954901704,-0.7290475134125969,-0.061879793170618036,-0.036626962827550395,0.3957303548522486
4.926267578125001,-0.45511329062393735,0.6601563233274025,-0.7190539626647924,0.10651493729813784,-0.142788588332175,0.20317823052045866
4.946267578125001,0.059650773829451595,-0.497964848055131,-1.740561763157878,-0.16412123513893112,0.16287985969938232,-0.35397490327669023
4.9662675781250005,-0.2133752065521679,1.4307070118712317,-1.1670605695683858,0.014482667795486041,0.197521648079912,-0.047009047391403894
4.986267578125001,0.7249638287782916,1.3740738908472518,-0.5754954453746705,0.11874572712859642,-0.20202166863655796,0.3337626437632364
5.006267578125001,-0.266684740310219,-0.6284815579735505,-2.1766213401175025,0.03552556995061396,0.17535427649710983,-0.15123626420488748
5.026267578125001,1.0623955623648949,-0.2855189728386236,-0.8771482704641955,-0.0513354093948273,0.0944315441754248,-0.15742271354217596
5.046267578125001,-0.44912485104903294,1.0891035215164333,-0.18303760777230385,0.26566737319014966,-0.15289292649054026,0.11083805184828059
5.066267578125001,-0.2553617619600033,0.276423710148394,-1.4681410185160413,0.007335052697046643,0.15757089222434623,0.17874958617786124
5.086267578125001,-0.39706784848206716,-0.26376304077919555,-0.07436810653962111,0.12694540138110044,0.09156336788919771,-0.25922531687010253
5.106267578125001,0.43282072194846916,0.5641995232138663,1.1136140131321224,0.056605004006547416,-0.02973209369380174,0.11229570243152559
5.126267578125001,-0.7236745401468556,1.058494290588667,0.05924345387477052,0.23062220330225325,-0.024829359588541614,0.17708218486235963
5.146267578125001,0.7412152212151922,-0.8581450559603114,0.550266942228253,-0.11406106129315771,0.06372119538661739,-0.10103496590121164
5.166267578125001,0.6859857202902253,0.01823703843065441,0.3112144868152232,0.1394031799374996,0.07634246244268077,-0.24504916656814943
5.186267578125001,0.5792713156510176,0.2733093180579562,1.4163692760531907,-0.059538014847989866,-0.080667128244425,0.2529964612448252
5.206267578125001,0.4279959883257144,-0.126429379135866,0.1000383229518329,0.1892439021776059,-0.06521474171667807,0.11396992022334985
5.226267578125001,1.8178771922859747,-1.7290830480982837,0.9574915465812722,-0.22849419264577442,0.09858183566097956,-0.07540211559402778
5.246267578125001,0.8580362806578371,-0.08058189775335244,0.5693406741142613,0.11271331199384081,-0.05384969266907365,-0.1470478080798641
5.266267578125001,0.11978731219195833,-0.013912343268186885,1.595471192332032,-0.15735807378413902,-0.18154653399713863,0.2560671812174176
5.286267578125001,-0.09215173230006235,0.02470580628425804,-1.0047706965072012,0.11683639659426258,0.14985594362388152,0.1485857819799575
5.306267578125001,1.7934692879392982,-1.4347723964942385,1.3938644120998638,-0.2527674816098566,-0.19613386428381052,0.01078145054040574
5.326267578125001,-0.7908346070292748,0.05696624045608655,-0.9357867484747208,0.10194861358661586,0.04635513492150216,-0.16937576542284005
5.346267578125001,0.24884944258705946,0.020832808885414975,0.33088587819934634,-0.23840109296650489,-0.07749161577410449,0.2775299489786705
5.366267578125001,-0.3392423736573179,0.18077001328550685,-1.5632333132601306,0.17288207706862393,0.0584770347928147,0.05559645386794497
5.386267578125001,1.1467261279154197,-1.1951748857075575,0.5676602272543809,-0.2939840154308404,-0.03922915767804328,0.01655449351174226
5.406267578125001,-0.18326028043068032,0.2843385844219832,-1.5135518529812113,0.1695108803592638,0.08945909833293537,-0.023816504987130144
5.426267578125001,0.278658485068326,-0.12582471815973395,0.7085938472498219,-0.23903473037793893,-0.13259322733318127,0.0804854577880194
5.446267578125001,-2.3748160227853896,0.8716948722777182,-1.1228704334305661,0.12395357193046777,0.16715209782515925,-0.1552729077164566
5.466267578125001,0.11756673424561055,0.9262435030960323,0.9213815297102949,-0.19710230544526308,-0.04853031780823328,0.21845866710003853
5.486267578125001,0.07083931294382508,0.6782924516234693,-0.7895562418579073,0.18638938753903686,0.020477837178275123,0.09193714106413914
5.5062675781250014,0.2934037278399795,-0.2904004432115215,0.21650327800834307,-0.22667446024039792,-0.01942591283206095,-0.20611992412613067
5.526267578125001,-1.5403026681253869,1.2850563808418425,-0.5402925715535029,0.056168306068834675,0.10481447852914379,-0.10130198770193617
5.5462675781250015,0.3067112049459876,1.4201633454605904,1.1610899526531322,-0.04128117648455207,-0.17066853695151224,0.31227417904220695
5.566267578125001,-0.6828554640367296,0.4048207094581119,-0.8478270836857851,0.054175405233939385,0.10806346247034845,-0.07083804952957899
5.586267578125001,1.0692237963351527,0.2838312919676347,0.4237425259244894,-0.19490999684350416,-0.0005541320422570877,-0.23057371353739867
5.606267578125001,-0.24531052787788374,1.8967403812097718,0.12157515334108018,0.09315636491407431,0.021070466553624607,0.05123712391165494
5.626267578125001,-1.0061017822585254,1.1759900799981426,-0.0972933569459883,-0.051029595335001066,-0.11409701363502063,0.09753547309260983
5.646267578125001,-0.35283275458665353,0.6987911909482685,-0.5553498639309224,-0.0439679291620391,0.1542586893611843,-0.11920377302673588
5.666267578125001,0.7899606342298647,1.495889321376187,0.7048464208550346,-0.03308169271725268,0.00033606107302437904,-0.06291038473076692
5.686267578125001,0.803478606608998,1.6432474581255079,-0.31569807660541455,0.07841477171004461,-0.13547333753465962,0.2135533886574538
5.706267578125001,-1.0936587254305503,0.005858810725413705,-0.35049921070921597,-0.03808783115829542,0.01673309601667218,-0.03934288280522458
5.726267578125001,0.3349993253851775,0.46740897103965895,-0.2641473186819769,-0.055355096182661614,0.1701450798859775,-0.14532038654598062
5.746267578125001,0.08122845907025321,1.390309189034493,0.6018896528825514,0.031084958814590283,-0.06736508525572879,-0.005697300850188064
5.766267578125001,-0.6327122084920046,0.8226188379898804,-0.45216812227081177,-0.01835422406025699,0.14269436743618513,0.07709146151202435
5.786267578125001,-0.27649266604155814,0.41800364303022575,0.010693995409309478,-0.013282334318040582,0.034144827294874724,-0.1279076511687911
5.806267578125001,1.1671873597891678,0.37819972654738987,0.19362251328899033,-0.027018972631204348,-0.019246437090712446,0.023660996064685122
5.826267578125001,-0.3124401878008607,0.3924614571112149,0.2949359681979796,0.025639069491465053,0.025429589986355798,-0.07233993514945171
5.846267578125001,0.5159790691657427,0.8203799790776255,-0.3009440183545245,-0.05845675385295624,0.06351117704255776,-0.03240391373047118
5.866267578125001,0.17464527074884315,0.9916180553978176,0.16575704804295743,0.008408578409777247,0.14913886618112068,0.04433199473346524
5.886267578125001,2.075574576115616,0.2308142590990278,1.3300291604223518,-0.0665387409359417,-0.10526336155538044,0.037320135036192005
5.906267578125001,-0.03499055372536306,0.2043159480305138,0.07197228012016865,0.0014723685243278263,0.0246430051498439,-0.1729798878674625
5.926267578125001,0.7438577625466417,0.6776097533544447,0.3347360398935025,-0.14891737383680198,0.01940028597329548,0.08208333156037674
5.946267578125001,0.5105386644798554,0.5921217361980203,0.6466872426938041,0.05512243091614868,-0.010657447641773534,0.0936213010779457
5.966267578125001,-0.5044064980697188,0.04984980189567104,0.6565456163366731,-0.1547371098397412,-0.056328573144632896,-0.1471992772347887
5.986267578125001,0.847811827096976,1.0080412035487027,0.08266999995988134,-0.06747313598818076,0.10649749697939673,0.06326123343950246
6.0062675781250014,1.0288639300944122,0.6116849269676486,0.8334964720067447,-0.034511269171534624,-0.11376375466302219,0.15304235943894595
6.026267578125001,-0.05130617292522415,-0.0023455760823502233,-0.6698757124797273,-0.09870548240549494,0.11122425198952755,-0.034309217383297425
6.0462675781250015,0.971931869759668,0.2047006971784807,0.2241326211740521,-0.11868427716868847,-0.10029304524348767,-0.05000839108689128
6.066267578125001,0.7840964787298439,0.43898260885577456,-0.9083088761996576,0.025733259898183376,-0.017109516364821706,0.1556459325794626
6.0862675781250015,-0.2570642999716563,-0.24016432718669858,-0.6847370476769794,-0.10138822035318551,-0.006542865848783411,0.03912329384468339
6.106267578125001,-0.34736588291359083,0.08031408663364262,-0.4782990001279173,-0.021178611787209943,-0.006524002921429818,-0.044925450594030976
6.126267578125002,0.3190047527430219,0.21746060879607726,-0.43556504002886315,0.008193512036240188,-0.0968601951802262,0.15447511927129418
6.146267578125001,0.03827066185530551,-0.5670445212306437,-1.576783342210225,0.03760323763705688,0.011851104270264036,0.1128078412779008
6.166267578125002,0.3205309418626715,-0.9086136751501542,-1.3722826928245095,-0.0018880940392913541,0.005274762773103222,-0.07472224494189675
6.186267578125001,-0.42228163868622864,-0.3741793118454998,-0.8549365964118117,0.039519093175048876,0.06508709403029463,0.0018292114496323755
6.206267578125001,-0.23515425232638953,-0.017695937958335902,-0.5275769128410274,0.11797980384784547,-0.0658586967455462,0.13205925179416442
6.226267578125001,0.13997184397440549,-1.16760886146964,-1.1990356709521088,0.09605750616413719,-0.07542533406496746,0.09680153517469038
6.246267578125001,1.3960937297093012,-1.843869700176661,-1.4517738788091654,0.10675877843076399,0.058854475823020336,0.08710980557632586
6.266267578125001,0.2598206443718427,-2.134884734912005,-0.26299625074737304,0.09582299191916295,-0.11876836272470497,-0.10112641188959054
6.286267578125001,-0.8425021026722326,-0.6906407781201085,-1.054136342250002,0.14252007195481012,0.05559791494512173,-0.0011585349624790146
6.306267578125001,0.37796157215902465,-0.9213361742372691,-0.1328832059601755,0.10307747394428615,0.10298941503488325,0.3061201012284808
6.326267578125001,-0.1387974339862059,-1.7809599782418792,0.3662803154256303,0.17754112997016505,-0.030795061059404,-0.129076618256685
6.346267578125001,-0.4419668547477354,-1.2090707849122408,1.0756655779227666,-0.06923136572746437,0.04919551615035108,-0.2120790543411926
6.366267578125001,-1.3443509596469827,0.7052589219879001,0.7524575160216723,0.21658238485047918,0.02483545600169147,0.14766123328011296
6.386267578125001,-0.3575026813521967,-0.5715673063677511,1.2677431366015148,0.014748319997821783,-0.08979916767063902,0.2502482084023067
6.406267578125001,-0.1706939950655676,-1.1541905958902554,0.4628285882872389,0.04031657109203173,0.16595596797132667,-0.2978477619744637
6.426267578125001,1.1872347683876872,0.10390565399288806,2.4135793781691843,-0.14020353859366017,-0.043377015825396555,-0.07510658649268925
6.446267578125001,0.5249917823540917,1.0699982043069662,1.526955769203949,0.16731261841309822,-0.13834768117349322,0.2780964337117016
6.466267578125001,-0.0848485315222061,-0.5151415918056184,0.8548587039326083,-0.19826068567035643,0.08545211510601401,0.04610831520047481
6.486267578125001,0.9732130541413985,0.09431629522499621,0.7343348583615908,-0.07257843659561683,0.13717994804041528,-0.16882253730784721
6.5062675781250014,-0.29500954660865486,0.6547489182127322,1.5334096749715198,-0.0992970105268139,-0.26337664925557647,0.014644148940440008
6.526267578125001,-1.444507863309105,0.9987865875964481,-0.7325702298115104,-0.05703393449736993,0.10032340014137996,0.1347738324887013
6.5462675781250015,-0.6290355832077121,0.42141166737338576,0.3589329617287709,-0.16126074302858381,0.028842067687792777,0.015689592626385977
6.566267578125001,0.27237157529673567,0.4922776120123713,0.11952251673928183,-0.0373908211792579,-0.06259378674519714,-0.03256027219765347
6.5862675781250015,-0.5203701668669785,0.7609181203024465,-0.324271515577838,-0.1356913204947271,-0.03552059458499792,-0.0370815904885182
6.606267578125001,-1.2007815244726436,1.2065988157193073,-0.5320192862283714,-0.0650213949137725,0.047709399733704395,-0.0003000433456959282
6.626267578125002,-0.4203771992692181,1.1188794437905385,0.007982640711538497,-0.059219132458085764,-0.04454644510784126,0.051081809749099864
6.646267578125001,0.16132955358984363,0.7686481424013348,-0.7055849912423594,-0.042165691969937906,0.0011349110867487522,-0.022949157488589677
6.666267578125002,-0.7694226959342612,0.7165218670738496,-0.5692280304569557,-0.08458985848466487,0.025401575651401668,-0.13825425873590536
6.686267578125001,-0.667752164207007,1.2896971792440162,-0.31750374203279474,-0.005113029805572445,-0.04526174221029142,0.004978231980919167
6.706267578125002,-0.5333333601103325,0.886568864474398,-0.536861205886188,0.017053813705337973,-0.013362890173203553,0.06265612938164081
6.726267578125001,-0.051769347976745705,0.4548520951026797,-0.8202346088926591,-0.016244823076178198,0.0357916016231712,-0.0996488656412581
6.746267578125002,-0.2331660651724123,0.5944404606865048,-0.2705294931348901,-0.00925008017744578,0.03529638904795667,-0.09535199320501414
6.766267578125001,-0.5218215371246229,0.969784510700654,-0.3389879511075636,0.07024696307900515,-0.01968114861289975,0.010870046376370304
6.786267578125002,-0.38803805299747446,0.40884937076801925,-0.6506928903576962,0.01677086186649492,0.06184925939316609,0.006342337502812596
6.806267578125001,0.014630279625586435,0.12352460832137747,-0.4409661882069599,0.05509378884767933,0.045070893984333615,-0.0976051355335171
6.826267578125002,0.39705606684162276,0.10920730651183382,-0.40465019687066317,0.049161770314190265,-0.008571150119874384,-0.02376198015181509
6.846267578125001,-0.0882141633884846,-0.11718626335053596,-0.3792950928065198,0.0658134217546609,0.06148924650037161,-0.04091027032869737
6.866267578125001,-0.6982926932709834,-0.1914000375500976,0.16964633107736032,0.03699842171298998,0.016975295975872065,-0.11554213249555338
6.886267578125001,0.37482117205384896,-0.013683735339639649,-0.5283435993459772,0.12095598998739089,0.0050164597126453134,0.1091207467007647
6.906267578125001,0.8517854322258775,-1.3329862603371183,-0.666223216745995,0.0753760294362526,0.016141850754567717,0.0951257282314763
6.926267578125001,0.4478044072219962,-1.7862128983825303,-0.5072325668494112,0.04578523321418778,0.06246740283913282,-0.2660967718730339
6.946267578125001,-0.16022605880900195,-0.3182673344425233,0.19443974717984466,0.024210544231935038,0.004565314668302837,-0.12877108379983254
6.966267578125001,-0.3075920186501216,0.22074292666363937,0.18212666551006604,0.15880212043195727,-0.0013953074031049066,0.2756353838624324
6.986267578125001,0.4093751536645478,-1.8871788551982085,0.16187379554036746,0.047322153241886634,-0.053696676615976026,0.08418047572867858
7.0062675781250014,0.46260925356213156,-1.8761057672601424,0.2441057763328548,-0.00863823646194998,0.11469793769692752,-0.32912544387271625
7.026267578125001,-0.6557646640220803,0.1325479379575175,0.9533107465319667,0.04384418684358211,-0.1257509113017302,-0.0030753943103708427
7.0462675781250015,-0.34023251759221934,-0.31531582163863897,-0.34777552585914157,0.12567678713663674,-0.026269536883742863,0.3577035374538725
7.066267578125001,1.5259823279341418,-2.5610711458648114,0.0448561899707817,-0.057938088669534545,0.043742398625840284,-0.05941351529095462
7.0862675781250015,0.4131800810247527,-1.776187485090193,0.8778962033946104,-0.037131666720994,0.0502662207037469,-0.3617795531660164
7.106267578125001,-0.08910023081591409,0.1028636279191942,1.2129604494802324,-0.007885994728261105,-0.15160860886121882,0.15454103415058879
7.126267578125002,0.15230017626542963,-0.2716759167310533,-0.5525728846217348,0.04454956609642911,0.05632097405937292,0.31013420115334933
7.146267578125001,0.9679958352289996,-1.848214789808373,0.32899582687992557,-0.10627548573318343,0.0008098487160283028,-0.13887165364458812
7.166267578125002,-0.7740437042547115,-0.7865435379110887,0.34149848563165247,-0.04278775935937678,-0.041115552157582023,-0.19425073659345574
7.186267578125001,-1.2340323831186355,0.8718577416279815,0.08532530243637951,0.013075579499139576,-0.1852665015486812,0.18737145448338322
7.206267578125002,0.0013957827951065105,0.32664910255893564,-1.0952222483354994,-0.023301544023051318,0.18881947731954846,0.27093435078076944
7.226267578125001,1.1426139704832106,-1.3139552063844737,1.0763412774758159,-0.05515640541345725,-0.190802686632362,-0.1469661548830415
7.246267578125002,-0.8918762046491605,-0.09875283518203949,-0.8526104474422989,-0.002567037265008622,-0.03892917469955031,-0.1539367227182179
7.266267578125001,-1.2547105657018225,1.0790820247587372,-0.4130246434002528,-0.058985217653281526,0.016823373522349166,0.19473601765558637
7.286267578125002,-0.6072483767548719,0.5332196021861085,-0.23592723408488103,0.07429707839702235,0.013158692794169705,0.122743370917775
7.306267578125001,0.8499768525590453,-0.3914978266406303,-0.044458553123755025,-0.0717013832313866,-0.059250872110973886,-0.1190045172691463
7.326267578125002,-0.6196552561628151,0.6572393576682758,-0.6326858208631673,-0.008536209126394394,0.07432179367807243,-0.1408482032398981
7.346267578125001,-0.658799738565354,1.392872880164544,0.6359239156693911,-0.001085618304718439,-0.022124168924593016,0.14789511500708813
7.366267578125002,-0.21990661252527371,0.9997429243976003,-0.2418075643500676,0.06904490420722387,-0.023881682007622147,0.08647275746287139
7.386267578125001,-0.4703082941380321,0.2782354012160766,-0.03757562788450228,-0.07128242219652799,0.06749174375217759,-0.1352099306771882
7.406267578125002,0.025919923661152276,1.3415552019406405,-0.08950031858076875,0.02906320894515502,0.038491683283101825,-0.01907093589739071
7.426267578125001,-0.049480016340974216,1.29724846496463,1.014119198961401,0.0015748965270022375,-0.048967964701165746,0.11305219582632021
7.446267578125002,0.2745526924723161,1.0513593385329516,-0.023695336594391204,0.028450181811469515,-0.03446760266761443,-0.03857705554879104
7.466267578125001,-0.2217940366599813,0.638271136158718,0.7528006879108645,-0.08160990968406161,-0.01857612047064826,-0.05965737996153464
7.486267578125002,0.3503596383075469,1.74598901941708,0.5080079176106287,0.06092013066212582,-0.05108058192821484,0.08641840553156069
7.5062675781250014,0.7139804917991456,1.3681079846738433,0.5459827989912683,-0.05695838782224176,-0.037033639692947234,0.07346693849743859
7.526267578125001,-0.3220667964032356,1.2660912514617342,0.014510009649678184,-0.020140428721351276,0.06998267751146102,-0.0684984897125837
7.5462675781250015,-0.008424338916605243,1.118390663626581,0.9353863884874125,-0.051642816812949875,-0.09781299733143817,0.08404836173747403
7.566267578125001,0.04607448058750646,1.2369500646844918,0.1575236299304274,0.012783408739522628,0.007084915698536938,0.07080970235267878
7.5862675781250015,0.5436237758672765,0.9659957505541914,0.7186014741033664,-0.12378211617526605,0.012297156516402398,-0.026006873966360415
7.606267578125001,0.12530299355259908,1.4199208131884868,0.3839287194816223,-0.0019103826870702865,-0.023158546706167064,0.03136000653777783
7.626267578125002,-0.04546604363929973,1.0982736032007743,0.5223400487685121,-0.08116348874291769,-0.020428716074521822,0.15963692116251543
7.646267578125001,0.09416559088024784,0.8857296283548833,0.11098426642269114,-0.03987137506739234,0.0007037537432916682,0.01110737679711062
7.666267578125002,-0.950276375977394,0.8439976206774955,0.8296002142031291,-0.1097214589187501,-0.08398171230516364,-0.06540538622478109
7.686267578125001,-0.3471652666842462,1.7083110516961735,-0.007270211925208573,-0.026548185443024626,0.06403195935864991,0.17430508468599265
7.706267578125002,-0.1388314905891201,0.808432735795099,0.6207503212338589,-0.07458381850349693,-0.05961038671392704,0.08635913046490108
7.726267578125001,0.45982842189138,0.5588769987781051,0.1618786200374517,-0.08797584133792835,-0.020142308205713146,-0.044125703904711
7.746267578125002,-0.49073996646694107,0.8898638659998681,0.2572534964105386,-0.07786351410079233,-0.05365009570040163,0.010241211504562954
7.766267578125001,0.5111998467041194,1.1272675134449053,-0.45565068041602913,-0.040599136174299756,0.022082855172451486,0.19782700837920528
7.786267578125002,0.2575057610890122,0.23479063405479955,0.1767432483575196,-0.08151120829986777,-0.048491163216311674,-0.001030163573797399
7.806267578125001,0.13416574138329687,0.5200888941484575,0.14702585696148787,-0.07775750804373248,-0.057352150305733623,-0.046805891262166284
7.826267578125002,-0.6357025305517537,0.9175646656479635,-0.3565843971706982,-0.021541590801737235,-0.02087496207008995,0.14565944033615444
7.846267578125001,-0.5434106160936149,0.21378859842934064,-0.38381404468672536,-0.034620479553981634,-0.007019401542238122,0.13274522297630104
7.866267578125002,-0.020391980026092067,-0.028142702222491354,-0.7563443569971223,-0.04641640198484521,0.03572611179476822,-0.06706657378909199
7.886267578125001,0.0944099484596548,0.12598761551261514,-0.17867306214513495,-0.043439280677519634,-0.03598154670269543,0.006999955008036497
7.906267578125002,0.021978170764160764,0.22379742809881853,-0.7411864622613985,0.03964981031291864,0.05121465464574791,0.15616174794482002
7.926267578125001,-0.22975170640637269,-0.6099107381222806,-0.2769337984337391,-0.05619390760067568,0.07199458015610742,-0.024572179510622707
7.946267578125002,0.7363635141827722,-0.0014855399186117205,-0.3081649488702084,0.016722100228138484,-0.010279395545804723,-0.06872169255073142
7.966267578125001,-0.01938626001850714,0.45392804392649194,-0.342699694952126,0.011851716658405108,0.07813809486010026,0.10834499888917591
7.986267578125002,-0.29961445594045344,-0.2844550647110141,-0.557850454419808,0.050477918243720984,0.010346014293684222,0.06370462447406851
8.006267578125001,0.054558106820598536,-0.5923362687983879,0.011173174622126247,-0.026029053582814685,0.09192864650958492,-0.05300637661148484
8.026267578125001,0.16271979961353047,-0.27406171028514703,0.010794358158284629,0.0565499086646505,-0.03540787362985783,-0.010649079920962347
8.046267578125002,0.19966551384260378,-0.25155502803650454,-0.2220085228782891,0.028102476982709394,0.09236359396082679,0.14108354826040656
8.066267578125002,0.21914169380647533,-0.8179948759000356,-0.24588926777501796,0.046211871133645915,0.0033502785470256842,-0.003799028559223919
8.086267578125002,0.5761002035232797,-0.8925081320410625,0.2442808202823373,-0.00017920341347091556,-0.039581899027407746,-0.06621420093379257
8.106267578125001,-0.25276872740992956,-0.2919801366610691,-0.09799970416264446,0.053986662952540856,0.01071427123293325,0.01733784035648197
8.126267578125002,0.42352779888386866,-0.31439778486227193,0.06737176598092624,0.017736118348189386,0.029792159446780618,0.10154055761948112
8.146267578125002,0.19713184790598065,-0.7620672098549037,0.25411731141439703,0.02792229140892161,0.024913776026758865,-0.04028629794291959
8.166267578125002,-0.16601798276566807,-0.7919007689240445,0.2798322712355239,0.006183467751394969,-0.0601813196234697,-0.05653864324575892
8.186267578125001,0.15827823332370508,-0.40283050584377483,-0.24258567286287033,0.027852476666702996,0.11149413083092793,0.10684622242223851
8.206267578125,1.0285972464401953,-0.5148886674451312,0.24916455193832407,0.0042794141700612425,-0.027355896051295386,-0.011400674573619067
8.226267578125002,-0.058843465381119946,-0.4112613486416486,0.5034681519785977,-0.017908725468291233,0.05966430699469855,-0.06469882575986628
8.246267578125002,-0.28595029005625633,-0.17344370370598639,0.34566158880163594,0.01855062186751691,-0.025630182307215085,0.0694391115025045
8.266267578125001,0.11618190566251038,-0.4919530486259708,-0.1448967912570656,0.0031807645821763674,0.03292843331209629,0.05228224339063559
8.286267578125,0.24637046848631386,-0.627661895669271,0.28981601922762507,-0.0423163216942584,0.04312224684344692,-0.06989257612993578
8.306267578125002,0.38047854283965477,0.17247933621163297,0.19841173552620964,0.0035385870864146278,0.02308880554331981,-0.019505254348696443
8.326267578125002,0.029867859666084687,-0.08826267063458444,-0.17775166929293262,0.006294905403425471,0.010222270127393655,0.08334871621488249
8.346267578125001,0.3001612894779712,-0.5822188133403141,-0.3508216825383529,-0.018958710883975386,0.09004989913448234,0.008529174248181597
8.366267578125,0.2392772140723618,-0.5641405761295555,0.2783072842357159,-0.024645276444171898,-0.049445941724236823,-0.14527553384384914
8.386267578125002,0.7601614025043256,0.622605902699422,-0.3115312009060616,-0.007625387161999373,0.0610177802666596,-0.009429506504013073
8.406267578125002,-0.31750289135146503,0.3227526384751057,0.10692456503323114,0.005821406576068208,0.05316017098891862,0.06420746021596091
8.426267578125001,-0.3516565434197989,-0.1312645628947247,0.08713083344640671,0.01590547280118533,0.02728052471310949,-0.014553519168496256
8.446267578125001,0.15316622814313696,0.04890096186052966,0.2767622408852108,-0.056324298619381034,0.09941976671685812,-0.1049311149209412
8.466267578125002,1.6279776996806092,0.7785300309465042,-0.538556361276987,0.047305295355126925,0.04265350180545758,0.01571107232315502
8.486267578125002,0.9180765936356422,-0.09130432902975302,-0.130773212099803,-0.03828223259265097,0.07783674661470118,0.03693238520748668
8.506267578125001,0.6059468185170519,0.10675109472644086,-0.05878178664610397,0.017379185947516928,0.07873696620720293,-0.13304110411581338
8.526267578125001,0.8409868649011604,0.607232767432056,0.3813838256259393,-0.036065184969864994,-0.03574402235363749,-0.01816014003890915
8.546267578125002,0.6325446012147944,0.6400561515590317,0.029215022688081013,0.05202305345713301,0.04887911474609339,0.07711632384657877
8.566267578125002,0.40422257409804907,0.43497653031035816,-0.17684526740473236,-0.020042475644376643,0.05786059217107287,-0.09582050294714016
8.586267578125002,0.608817067187783,0.6266334130078958,0.19189335309584732,-0.05130621544912324,0.13027467946421115,-0.0559937732432632
8.606267578125001,-0.04301904046038006,0.8418944739835631,0.5396824417796737,0.08020043685777677,-0.042434695164181344,-0.0011173331798258693
8.626267578125002,0.8615581378090933,0.18876032965633055,-0.4287573216648668,-0.04996762151612702,0.1195382331952026,0.09981868291187687
8.646267578125002,0.7916313676124219,-0.17222910454160925,0.32300516363016146,0.0199462838179361,0.06709014718351317,-0.15489257215466037
8.666267578125002,1.0416723843678053,0.2086732038020384,0.5793979811187732,-0.05764793429691391,-0.0462488379708474,-0.09164032654023456
8.686267578125001,0.33130619622004254,1.0115824134653433,-0.5473004692162499,0.07736745557085051,0.10304200933367402,0.06762780367868114
8.706267578125003,1.5950617829719242,-0.263329949740328,0.1366983562980426,-0.07317996955856929,0.028881637305594957,0.0777708397526504
8.726267578125002,1.833119419634331,-0.08213575723907922,0.06791059270215476,0.05195525604303459,0.03636218082560932,-0.22342407868754224
8.746267578125002,1.7882903114531072,0.660865576956781,0.036921182179491994,-0.08138001613499629,0.012757103365747867,0.007494937348299715
8.766267578125001,0.2980181147548438,0.6742527275892747,-0.6970637992134985,0.11226038746887688,0.1372637419219179,0.14278603558513916
8.786267578125,1.6745764324238723,-0.7818154901366577,0.3683331966203585,-0.08170536940015267,-0.014388803772345584,0.03675769904790542
8.806267578125002,1.0385330035262677,-0.39296904450109377,-0.5068953086212692,0.06392529172497037,0.08640574225526852,-0.1947513323596922
8.826267578125002,1.0199352149010483,-0.07204205456772243,0.10710143144473577,-0.06663684357229298,0.019129340331769804,0.09654942887149037
8.846267578125001,0.7287837585761032,-0.15796972152674094,-1.0752858872417654,0.1369130142316376,0.15283564998323237,0.12735075102789797
8.866267578125,1.5787876390214886,-1.2987518371620772,0.5025932723992985,-0.12990847516184814,0.11483953085500798,-0.08933476914411342
8.886267578125002,2.178328990704418,0.10604280430916024,-0.5761901329241917,0.12638339096860576,-0.020274084915463376,-0.08172707057246077
8.906267578125002,1.2899494768656918,-0.44454670230962434,-0.22042789685919964,-0.048994930986126776,0.05924550081593278,0.18511579129603792
8.926267578125001,1.2950253051937717,-0.7683438709173454,-0.4428695498800324,0.04607110037063869,0.15827888598437956,-0.07326505689640903
8.946267578125001,1.8250941900587896,0.18331023321723647,0.7813735946944733,-0.06902005005631447,0.04475600111114551,-0.15062940826495336
8.966267578125002,1.3262663673905302,1.2497417842700884,0.0953860758494783,0.08058535361305356,0.027427517507394947,0.17206545296884748
8.986267578125002,1.0589590096329875,-0.4297002559432603,0.6073874443810942,0.003406263996829053,-0.038357168417296625,0.22092038986075663
9.006267578125001,1.1851329326447828,-1.121962543554775,0.018796614431509064,-0.053504339213484825,0.17718546264074175,-0.21420673215637343
9.026267578125001,0.886418769060074,0.6681530045758559,1.0413188343959057,-0.10210829267366493,0.07195797043092236,-0.14150272513184392
9.046267578125002,1.3355812622454166,1.7280474212407293,0.12111051433662892,0.10645929468547415,-0.03817622212564649,0.39366378973276034
9.066267578125002,1.3861799590483843,-0.43476870196400996,0.4040975782931916,-0.11143366682280606,0.10353009553212518,0.14129292267422072
9.086267578125002,0.9532294019148152,-0.5735574892590106,0.6364838917833866,-0.07841970493291182,0.06959547467788758,-0.391702024383224
9.106267578125001,1.733350886251791,2.2504841550957035,0.08600450097867937,-0.06911246797117401,-0.04659260286524933,0.09134738385664277
9.126267578125002,0.24302661341547055,1.4891189048105944,-0.649763191975966,0.03732025287517074,0.11736063519637221,0.3622618280393943
9.146267578125002,0.7906864280303064,-0.5461013906236701,0.21354778101080463,-0.11023549816143521,0.08543258228811719,-0.1495657061348663
9.166267578125002,1.4938740164352815,0.9982448973480111,0.059611723614959755,-0.10600635328579906,0.12323105189012447,-0.2161911225573281
9.186267578125001,1.2112274945613897,2.204045582309933,0.40009983980360375,0.0009170424769342282,-0.042240282766323474,0.15665761206638232
9.206267578125003,-0.013547816677304333,1.119488576923952,-0.26630879334417484,-0.024938455025459407,0.11376526130489951,0.14417565628401238
9.226267578125002,0.583608239153481,0.012806784337722381,0.3997197422159232,-0.10485763049723981,0.0483398077730603,-0.20559839533917942
9.246267578125002,0.7350317219519079,1.6685341590068563,-0.31279069650235203,-0.0195306909283278,0.0731777102199881,-0.12076039857835161
9.266267578125001,1.8345397479198622,1.629500295890237,-0.15679046488415607,-0.03985321395497516,0.09558475505508258,0.27114103991480903
9.286267578125003,0.4442242099105068,0.010853652111165773,-0.32552736319213094,0.027720702108613562,0.03254576604024883,-0.0995081432818107
9.306267578125002,0.5132189222053313,-0.07729855768149727,-0.14456013970372075,-0.12171574421977964,0.07706513465760399,-0.17747695931490123
9.326267578125002,1.4475124037048666,1.1294006321070669,-0.7709470643338269,0.09334141434248197,0.06813320095306813,0.14054597713167044
9.346267578125001,1.5567100790471182,0.010829318512866483,-0.6667086675428304,0.001525433320898792,0.05262996606135118,0.13652974931051545
9.366267578125003,0.9454959951235161,-0.8951757138478607,-0.8268383067021796,0.03736733650304183,-0.004330526810324647,-0.1996035284127858
9.386267578125002,0.2795831472403044,0.027911101732210397,-1.0221711531045738,0.01046742984672075,0.15039435446611152,-0.07047374338906538
9.406267578125002,0.943625901715472,0.24746758491628618,-0.9883222085276062,0.13008175657678112,0.043346880279649856,0.15548387498643987
9.426267578125001,1.4194495501495674,-0.9185742234001104,-0.5991510054841093,0.051646037768855714,0.09698423674042224,-0.032758197173226734
9.446267578125001,1.396161568319607,-1.2293770531513075,-0.8733170922652499,0.08533031555410346,0.07483355471677555,-0.1870251747661468
9.466267578125002,1.1471449653804113,-1.021108179339415,-0.6361658285655089,0.0975531271794048,0.13266202941445948,0.12595314220057194
9.486267578125002,2.0662529932890945,-1.4532871609380902,-0.7431316417334706,0.14506661453931707,0.0557620119727351,0.0598815340939401
9.506267578125001,2.9976196050690636,-2.4497821547088536,-0.8874232625149412,0.03552591556210595,0.14514699612076928,-0.1495913562718499
9.526267578125001,2.0293809267893095,-1.8538065953037035,-0.34547009581283555,0.1251926594778343,0.013526473715729551,-0.07559639015921048
9.546267578125002,2.1417922877018327,-1.9021951076872594,-0.18247891632766733,0.10723312823113232,0.03918182798703249,0.19124389125854538
9.566267578125002,2.4001393390075907,-2.3623637425572244,-0.45385615748710023,0.10114901335373391,0.12465573591944516,-0.05836794207159143
9.586267578125002,2.473115350288682,-2.1298231236346257,0.08961502866671914,0.027205762724638014,0.1079340650847599,-0.08448066111794114
9.606267578125001,2.672059075280341,-1.2387179210925086,-0.2001079067277308,0.15962647411729014,0.04017787643166242,0.20334820094268152
9.626267578125002,1.9346658099608451,-2.867424593421667,0.2050329893477998,0.006650997375780435,0.0853084969802498,0.1383017433334277
9.646267578125002,2.9349142814060984,-2.7581276273885615,-0.36477136193650594,0.08127431177508138,0.10498215995962913,-0.11503279176905484
9.666267578125002,3.1343854333214143,-2.2420927987823243,-0.1405496875013989,0.00028403605220793073,-0.10365797600595378,0.06281651772259882
9.686267578125001,1.8266540569517566,-2.0498717941087174,-1.008952331255352,0.09803550330878835,0.2281011245778207,0.21711401879952139
9.706267578125003,3.0334658247440474,-2.5655524871411926,-0.6119202503751419,0.01394788499914339,-0.01691502382844298,0.005351716636559723
9.726267578125002,1.3656094873887619,-2.393299152867692,-0.9121183248065677,0.05002172923752481,0.011872988668429414,-0.05281295640902415
9.746267578125002,1.0600346417468303,-1.202208995441722,-0.8470272150765461,0.0667955958301366,0.04761354253843848,0.1343832011906915
9.766267578125001,1.6296164841992742,-1.342925464509933,-0.8951709090323182,0.07914865816097576,0.0775853392055095,0.13637241656332302
9.786267578125003,1.3612678862671979,-1.549294460919165,-0.8280393568108195,0.06961507186264883,0.13031868870923888,-0.0671546036591687
9.806267578125002,0.9153600390100483,-0.7974026087435806,-0.7912400029052291,0.03494522487554983,0.08375565249190861,-0.0471211527452917
9.826267578125002,1.1283358056561728,-0.19616969797444844,-0.3231232722438208,0.09520458121744527,0.11601076118288084,0.08317239973822248
9.846267578125001,0.6232168082013819,-0.4361875743759392,0.7403105182270088,0.015984844341010596,0.0984535561839177,-0.02615146336981064
9.866267578125003,0.9159373525647716,0.5499313363940321,-0.02650324348289094,0.09583955608479856,0.0396005385224699,-0.07210245673193383
9.886267578125002,1.3169686667165819,0.4569034957878085,0.41728806933711404,-0.05351923874948543,0.23802088519871667,0.1335261136316339
9.906267578125002,1.9051361427264868,0.5085400176386458,0.7274065913008598,0.08948627650086867,0.06003885842417607,-0.09071911661291542
9.926267578125001,2.165377744702166,0.6179139309474436,0.5492696831150764,-0.08335340661038729,0.00610780853492655,0.025636178593387623
9.946267578125003,0.8126921733636352,0.6692095460082781,-0.11876441984597347,0.07354744446920064,0.06325327703251513,0.025084601328919664
9.966267578125002,1.4741621930376216,-0.06438161555282892,0.22670803951238577,-0.10351034493425766,0.04551589946923361,-0.010002598363598979
9.986267578125002,1.367961625851562,0.5688980361797253,-0.5511457711806724,0.005769732299966806,0.20535983883510706,-0.08134594918545567
10.006267578125001,0.9646693800306574,1.1616917430914824,0.056798203366226534,-0.050003347055821296,-0.016507120042395768,0.019507094330814313
10.026267578125003,0.2611999133133113,0.5406032166058438,-0.5506305843870015,0.021869595304204802,0.1342073653664577,0.11965274173306299
10.046267578125002,1.1844160534779355,-0.37866662659094286,0.034181012428472435,-0.06098623852355342,0.028727751604923007,-0.09720085717667636
10.066267578125002,1.1305300921380212,0.5972918463228837,-1.3875171156837396,-0.021519784318331563,0.23927253933637257,-0.11859229289176526
10.086267578125002,1.9188076801109912,1.2441703045591619,-0.8866747212226886,0.008209116572513076,0.03931579868247242,0.11100405774509353
10.106267578125001,1.08611049906216,-0.22161807622894453,-0.7739945773971353,0.03685897732969322,0.05223017807640394,0.07365305817928436
10.126267578125002,0.9244916909664143,-0.7251374995817472,-0.7478799150300676,-0.016962603825829838,0.12764896339816975,-0.21330094352555415
10.146267578125002,1.8430926543849466,0.11114273108565648,-0.9578904462345158,-0.022133033824531245,0.13505089698112918,-0.03296138548903658
10.166267578125002,2.0087767382800648,0.24080403715368473,-0.8531647867299426,0.11314575702121445,0.06126572153004506,0.12032781065776979
10.186267578125001,1.364996440511416,-1.1473095865000356,-1.0123197468440663,-0.02776822600701545,0.13398849052212175,-0.017461932709234757
10.206267578125003,1.8907697719043028,-0.6665897244230988,-1.3152088727503932,0.060584102794965455,0.16311677536121297,-0.18176625712729721
10.226267578125002,2.4821115884884795,-0.28076540882897527,-0.6805756917937719,0.013533180129933941,0.02128049979951411,0.0655320173820392
10.246267578125002,2.406908117128699,-0.31776627797954815,-1.3586462687321397,0.14369807207980104,0.10903215103871357,0.10710463905848336
10.266267578125001,1.8821581113745405,-1.6674467282299301,-0.7224283493551712,-0.027400573823156554,0.10034017683388377,-0.04826602031003822
10.286267578125003,1.725180954613057,-0.9109912175216842,-0.7554711244808769,0.10081459031123279,0.10949290694051102,-0.07445269806896558
10.306267578125002,1.4006780569290433,-0.34639752036009075,-0.15092398407415306,0.03448688662295147,0.04405534257018515,0.12120458719035157
10.326267578125002,0.877487001085306,-0.9251364724877071,-0.6806648519144689,0.11030944437024535,0.08633858211379868,0.04025839664129703
10.346267578125001,2.2606769129379947,-1.1047371190228805,-0.29781297517887867,-0.0166810049438748,0.09498562641976291,-0.02150465875457626
10.366267578125003,1.6630865167277944,-0.5446342534773098,-0.16253418502257108,0.08474522146336785,-0.004573281867234399,-0.04594106854313126
10.386267578125002,2.1859540768475036,-0.14830198433908834,-0.35745131577832423,0.024002629956576402,0.06953073426016126,0.15933558743240042
10.406267578125002,1.0121527633991456,-1.1883052458024748,-0.4260198218805379,0.04169438542120667,0.021510381578883825,-0.013789568022549577
10.426267578125001,1.9912271268205635,-1.1251840004548368,0.012007078335033648,-0.04474744328581193,0.07761666738562661,-0.04263353591515846
10.446267578125003,2.245618062097264,-0.09482346916605057,-0.23457216058631622,0.05823439892671137,0.043021994085512216,0.1153340262954788
10.466267578125002,1.4944084305454004,-0.5572872968425525,-0.5590665543188705,0.009653158974147678,0.01862076233423749,0.14330935836155892
10.486267578125002,0.8458541697683936,-0.951828811566341,-0.5480943099799604,-0.021579878952702837,0.06703050125177674,-0.07153212808927403
10.506267578125001,1.007781767874711,-0.0483590042097992,0.03067091071591854,-0.03309338478917574,0.05927910039899999,0.008304314149497177
10.526267578125003,2.0813786876230433,0.9186989010693378,-0.5231898893847897,0.04867861995713485,0.03954041899380481,0.19412411166750704
10.546267578125002,1.0825250343337176,0.042169891416721256,-0.6229465330220855,-0.023536633533088887,0.03075229775572093,0.041126135167918604
10.566267578125002,0.566524544049445,-0.2503352006469502,-0.3478244181822489,-0.03453113958252373,0.047617660262181095,-0.042158661929665
10.586267578125002,0.5663814168983293,0.7031981458527713,-0.2700821408241515,-0.0010238328443825072,0.07196487293272186,0.10530880686223786
10.606267578125003,1.3993997759464323,0.8481535817547691,-0.192889379493642,0.0009594049626322582,-0.033996099104459596,0.12236335764399137
10.626267578125002,0.5292204721709013,0.31081064602923797,0.014854820902468294,-0.04471970813112363,0.054597468406338855,-0.025972075588097915
10.646267578125002,1.6423552161209423,0.2964139304672853,-0.7124334356100122,0.0018026363201568017,-0.015473727384348799,0.07201281055008833
10.666267578125002,1.6327552762482453,0.45987186080730613,-1.5282790492739284,-0.016216671944517307,0.09255287668695783,0.09813689951354722
10.686267578125001,0.6535211634325214,0.61326422728016,-0.2492600861557911,-0.06733798772756938,0.11725790461629566,-0.04423333962947363
10.706267578125003,0.5634664823216963,1.445482823735352,-0.011160970419336967,0.02271795669819139,-0.014681322569159471,0.03148660924850467
10.726267578125002,0.9158672002858916,0.9765746076338736,-0.2218136053491903,-0.02744607895081772,-0.0026165849555768402,0.16716469025778102
10.746267578125002,0.31127305658881294,0.5347851836793481,-0.493813197285837,-0.021338495707198587,0.1689822418063567,-0.04707565423325786
10.766267578125001,0.5112400471449375,1.3591091104608937,0.11956721796582138,-0.09366414013412318,0.051396801811793534,-0.12195737857903587
10.786267578125003,1.4470125139206416,2.926587264324548,-0.2051928348722158,0.023030322345377392,0.04580491171409413,0.12736252797006647
10.806267578125002,-0.24437065556294893,0.8163988404100543,0.05220294015996219,0.03388192224815824,-0.14287671652760303,0.25441334801769655
10.826267578125002,-1.2635663499289376,-1.2101264071114,-2.208701153682723,-0.00840957824987334,0.19346151730269995,-0.07871162389270937
10.846267578125001,1.8993848505628896,-0.44165903655795297,-1.68283433991573,-0.11745123505207902,0.17220200351146195,-0.15021838803981052
10.866267578125003,1.4171716029413022,1.8679100491928053,0.09575281684543446,0.06363409663115377,0.026379893458916746,0.013661637103541967
10.886267578125002,-0.22081258617428676,1.3388662872485633,0.8056236047629712,-0.022186942454820464,0.004094171142503267,0.07268198896608884
10.906267578125002,1.6415260779358622,0.3176002536151355,-0.7144368548010445,0.04185274619036953,0.05487307835011982,0.06594367507932522
10.926267578125001,0.5343696622443711,-0.07988567045601777,-1.2910777503474609,-0.002394601073825073,0.07220406972580083,-0.07041253500690729
10.946267578125003,1.5055500969688576,0.7986400457791476,-0.997475814652282,-0.04518585000875032,0.12517910113596195,-0.11259450144360011
10.966267578125002,2.627516580292144,1.216299149917704,-0.37039468076315135,0.06633635734609684,0.048041222992342,0.08504041430863762
10.986267578125002,-1.2187993476401802,-0.8462320380741088,-0.40640334035861525,-0.010047447512322517,0.24300593717968147,-0.007819595226512259
11.006267578125001,0.5235277125746337,-1.142746951197361,-0.8199106078980699,-0.02643447318977349,0.17240021025787328,-0.06781486800374038
11.026267578125003,3.6331123513002397,-0.07442384470823214,-0.28096151516265705,-0.030163867607478037,0.056383090931526735,-0.024703308923367733
11.046267578125002,0.5299780174776704,-0.1561200499783759,-0.0008853459861515253,0.03479617136479736,-0.08483818090193967,-0.14198211239838993
11.066267578125002,1.0977775785620532,-0.0505949907914372,-0.9745830064927422,0.025157389461234393,0.02067399887642614,0.20612984760068642
11.086267578125002,1.372283041517172,-1.4534158955650411,-1.0413872148022771,0.055132476349609674,0.14753830811446572,0.19569543127058991
11.106267578125003,1.8732897303324652,-1.787762973750794,-0.6034584454208468,-0.024111017021227053,0.003963766187878939,-0.38483622205123447
11.126267578125002,0.6607303498960705,0.5157954800308729,-0.7434563154154294,-0.02138614262728858,0.12458812282557395,-0.058646957068600854
11.146267578125002,0.7953372442731877,0.3736068037757956,-0.08938747936523511,0.14292885349562653,-0.02598923636994708,0.4160633188197591
11.166267578125002,1.3724893574251151,-2.1312691065333453,-0.6976800099792978,0.014155040336978583,0.027801749980964692,-0.009659907922783987
11.186267578125003,0.8197891554541901,-1.9523373703922502,-0.7410385066064049,-0.037968359061747024,0.08434141789044636,-0.4547393821031451
11.206267578125003,0.11092799398497293,0.6875911898044563,-0.4189632655095984,0.03347085610687425,0.09976561430992506,0.061642479096439586
11.226267578125002,1.3014694877751667,-0.22777452756289973,-0.43481158313902685,0.1048713076252829,0.08453995571771775,0.34971683437925916
11.246267578125002,2.8893605407036875,-2.5990715601995964,-0.362898892512682,-0.04020679394274977,0.10516961227048084,-0.1473338243523097
11.266267578125003,1.6504576239588158,-1.487935356879264,-0.46824369376262154,-0.014291215938953685,0.05595590690149464,-0.3733788133104608
11.286267578125003,-0.047968506348834206,0.39550406809765154,-0.43048978829449186,0.03190372149236773,0.024141623558891163,0.11274504065402671
11.306267578125002,2.269144831249153,-0.4346633157472243,-0.9910671223598211,0.08064295382562778,0.036415968751545645,0.32164513186566185
11.326267578125002,1.7720280505878472,-2.6990460941769614,-0.4255383547939966,-0.008502805552425769,0.003618015498283872,-0.27021869711510377
11.346267578125001,-0.07110811269206142,-1.175958918354084,-1.1514526072820725,-0.02149924522904058,0.09975919669496973,-0.32006260448007245
11.366267578125003,0.43090201979367293,0.33156678733935,-0.9149619152027364,0.08453320899189042,0.05208069926782411,0.26744332881375654
11.386267578125002,1.1657667136194496,-1.2916010062758907,-0.9032057267149732,0.10246267359666712,-0.00878909230960302,0.11704096356714891
11.406267578125002,0.10743808105488059,-2.5757037747443237,-1.0459280600455312,-0.022603066811997568,0.14486259875263705,-0.40242709212312583
11.426267578125001,1.1553601946201582,-0.03592942398785721,-0.9111851613714608,0.05752436027591895,0.07798877338173463,-0.06414908673369844
11.446267578125003,1.4694327124157285,0.043379914436174324,-0.8588014648076688,0.1567721035412124,0.07398420487993802,0.28625000417070634
11.466267578125002,1.358401741359971,-1.9356610636825367,-0.8038407847952695,0.052461702797829655,0.026064750720152807,-0.16689796562717082
11.486267578125002,0.31035910214557344,-1.3944191975017395,-0.9303218443695795,0.024608793910435717,0.16300993070770023,-0.3324058223676565
11.506267578125001,1.3914916145125533,0.4909422650561308,-0.05229307060997696,0.10331096388615155,0.08208369094290821,0.13685746682916294
11.526267578125003,0.7831496378978829,-0.32865015927779295,-0.15602268045135992,0.1341350036075876,0.021333604687711526,0.06683408441555458
11.546267578125002,1.0404302002432895,-1.433754473953836,-0.25138420852320215,0.00045245152678453747,0.11759504201013601,-0.2217964932278461
11.566267578125002,1.212677083115493,-0.6442390658995448,-0.10362792026685692,0.08577380070981232,-0.00025144771444681786,-0.06324425300254115
11.586267578125002,1.7547280803738705,-0.46179600123017056,-0.32609377138888607,0.07504535526818146,0.08916936178303696,0.12197419982309618
11.606267578125003,1.8899328361056895,-1.0194382877651214,-0.15782857409596107,0.011707040509313918,0.10159325682569377,-0.1740544455526041
11.626267578125002,1.5220800453182475,-0.2194488711411842,-0.07403487383428768,0.011903164216914893,0.08934863513942058,-0.15653193940458116
11.646267578125002,1.3086952042783302,0.2858963464746578,0.5048346054146908,0.0386605999665047,0.02055568003023108,0.11532300540390124
11.666267578125002,1.5516910413050005,0.00933491619063064,-0.14108709519101229,0.0454868390167506,0.06793794060318137,-0.005794961684157507
11.686267578125003,1.3287720907610114,-0.3111815536546212,-0.018356984324522374,-0.07178330118962453,0.07856377490786874,-0.1836273560039997
11.706267578125003,1.2035803288966693,0.7760725307659648,0.060593404176340446,0.035787701723550926,0.07473246848821592,0.02916581472254239
11.726267578125002,1.4455948294056893,0.3384483264034958,0.08778276810616695,0.007743154851668886,0.005390099978100192,0.14283065738133496
11.746267578125002,0.9334270887968203,-0.6226556604400086,0.1647674928656793,-0.05851442719511174,0.08484691590688152,-0.13930121646798643
11.766267578125003,0.9239469747140121,0.3213593905743791,0.24838864619726397,-0.057753834273544406,0.07770091675163891,-0.14294117311205426
11.786267578125003,0.985837391146045,1.10649151297766,-0.44931730450218615,0.0025042864893741116,0.06722740538051866,0.1335625509730186
11.806267578125002,1.2596465862713413,0.5113943126157812,-0.2169790384285219,-0.04389153616276245,0.07519760746710642,0.04982447131858955
11.826267578125002,1.4956743293290349,0.21201168485267208,-0.2609700266371047,-0.04279303240591205,0.024177589736804284,-0.13374351698123774
11.846267578125003,0.9049674158964512,0.7689789913143713,-0.32892398406306833,-0.03155794517941827,-0.024391268869345558,0.0010337499896816143
11.866267578125003,0.9939330420899558,0.6761065506020371,-0.8919201330459736,0.018517235623954124,0.03177856917673587,0.1682188260354838
11.886267578125002,0.9807493254161553,-0.23658859541538066,-0.5340704757355177,-0.03178661271765545,0.015293639188402442,-0.0449040267543744
11.906267578125002,1.0402356357003844,0.31825114394883625,-0.8221537154661653,-0.021615134442731176,0.017889755509814885,-0.11767545774054355
11.926267578125003,1.4108799611906748,1.0875559283775915,-0.658193131377647,0.012094620677925418,0.02810946424301875,0.13269073007573867
11.946267578125003,0.6967616898186687,0.2587325975991959,-0.5771962396897553,0.03757413918257258,0.014025406873768279,0.11403300767689978
11.966267578125002,1.0502486537552873,-0.11734345366574259,-0.7312577256350682,-0.01851426750637347,0.03581466657382627,-0.081384309153137
11.986267578125002,1.2265175604610519,0.38052509037671167,-0.6454404393999575,-0.0024216184476310784,0.038470417691828275,0.003170514766186865
12.006267578125001,0.31662465098077475,0.18194178330841826,-0.5241078374658686,0.06529046297369588,0.010316955357613272,0.1148327246054625
12.026267578125003,0.8884653358171339,-0.2807405495981537,-0.9231159929863759,0.0058382250913435385,0.055135402450464686,0.04769711328618391
12.046267578125002,0.6785385387230828,-0.512089724813578,-0.5858881369727659,0.026350107700066395,0.05011944806867473,-0.048178685243293336
12.066267578125002,0.9071531745874136,-0.0867880419711674,-0.556096680470634,0.03718468827562807,0.005524790153962312,0.04535030524637902
12.086267578125002,0.8265373834792873,-0.2394875360885383,-0.8895107580109303,0.043240959750745975,0.08142495791034739,0.08285257357622476
12.106267578125003,1.067854482219667,-0.6805226133500001,-0.3677638141737033,0.014621168126022406,0.03353384822173336,-0.012113830009604212
12.126267578125002,0.7284902287520688,-0.32436954240565946,-0.2741036493731815,0.035827101458854,0.028992170540994316,-0.018763723675183124
12.146267578125002,1.0487866836071917,-0.029176971581484953,-0.6256428890467995,0.03910356528319048,0.0455463952976403,0.09480485876867992
12.166267578125002,0.5769468754628972,-0.7217995015713174,-0.23063670657856772,0.01696475484072894,0.031191720568596336,0.007306152285147372
12.186267578125003,1.5812422648581783,-0.35148341589168086,-0.5377513457413153,0.030493325157522892,0.08142831161945638,0.04708811321588877
12.206267578125003,1.0903870967859075,-0.7464965583875038,-0.3179088930555279,0.010701713869252321,0.019079989908287565,0.053995501379984316
12.226267578125002,1.0717818393712917,-0.5624095212672358,-0.41221300774484565,0.02247025243094917,0.05265242700638542,0.025385721219470782
12.246267578125002,0.8870986709213338,-0.4903028940298329,-0.05786225250113115,-0.004093523155058003,0.004797987331939918,0.06057671007400736
12.266267578125003,0.6849487219755036,-0.5108757232398086,-0.3175054633071921,0.028989345462542233,0.05658640914829751,0.08471974699117393
12.286267578125003,0.5171752114358744,-0.658418034266944,-0.2594593511464967,-0.01423548059711498,-0.04008201536561464,-0.03281040518801248
12.306267578125002,0.47811003868584884,-0.18741220095847577,-0.41162005212437314,-0.01628825179251939,0.06601437927402337,0.026517559523884845
12.326267578125002,0.4018413254134152,0.09906310325163215,-0.14583538690437112,0.028966646620186193,-0.0006411736406093188,0.08074693276363601
12.346267578125003,0.7671292665368964,-0.07721157573845236,-0.5627829551363728,-0.02686131827217154,0.05375063111962943,0.05246638876883382
12.366267578125003,0.9599615589522152,-0.08466892196491743,-0.02839674830172545,-0.021155442114722412,0.03346444821592096,-0.013955666526068678
12.386267578125002,0.5610671454847469,0.20161252276425812,-0.03949792234180614,0.0014309054938914296,-0.03158152758603108,0.06662909287788982
12.406267578125002,0.27604889635317326,0.2054878040463161,-0.5621968647063141,-0.013545080894312122,0.0721344685552125,0.09160329469732181
12.426267578125003,0.421144756814876,-0.12522446368773257,-0.14535256971650104,-0.03368723897382234,-0.0213331048701245,0.0017886581562447524
12.446267578125003,-0.14972999079360844,0.19419633537345732,-0.29266949302074385,-0.001809891208865573,-0.0013765181185535647,-0.020244332507249777
12.466267578125002,0.10875300771412803,0.5336395687237231,-0.6227219869623454,-0.015298266126419558,0.005198996022907902,0.0903168128120581
12.486267578125002,-0.09517254358804264,0.15244983674908297,-0.43543490002910634,0.0008572910228219383,0.006280739217128459,0.00873709123228567
12.506267578125003,-0.016313462776307068,0.239171375145385,-0.25988107851059256,-0.027245994026526645,0.01500308508744543,-0.04439458165428671
12.526267578125003,0.1978054068703605,0.7886852484074762,-0.4932234871773838,0.014060501101638779,-0.02002153583219821,0.03102829681999258
12.546267578125002,0.12250116221686097,0.6176408579983108,-0.3591888994076755,0.0029067847918859686,0.028004811829329568,0.07894413966634561
12.566267578125002,-0.22565589859492283,0.122902573772565,-0.3906686612764058,0.00393168628001596,0.016042773957941167,-0.05556181741205581
12.586267578125003,-0.2486822881658698,0.2999173799200034,-0.4751395065642002,-0.014286125930851191,0.012807862863759333,-0.03956773975253395
12.606267578125003,-0.351471236623226,0.3765392252350204,-0.6709636591642132,0.030474339179422993,0.05659606462398089,0.03751828849359549
12.626267578125002,-0.3180940977993134,-0.07675239125393656,-0.40650951623999143,0.013891740113515703,-0.011482678669729367,-0.020883888150282266
12.646267578125002,-0.12496969205938166,-0.07968448493086912,-0.536398573518597,0.001284784458031505,0.07934490540784093,-0.06154900562237538
12.666267578125002,-0.028693485772167696,-0.027551010999441614,-0.28586802188253685,0.028745909722190554,-0.03375828511071947,-0.04143240881393526
12.686267578125003,0.2126273843925124,-0.0415010809786948,-0.7761752385562981,0.027266801547978076,0.06697000840624073,0.021773299119300694
12.706267578125003,0.41537884050385027,-0.38634926138474496,-0.4967781030295013,0.010873831085054029,0.026050662342396544,-0.0771417548137476
12.726267578125002,0.6226243577244989,-0.06118085952213467,-0.44812618854309,0.015497759180481437,0.038088781350742965,-0.07708945810016034
12.746267578125002,0.8494254090358128,0.313209330027278,-0.39507003005857133,0.01556253999566705,0.11199123408253946,0.031774622319972724
12.766267578125003,1.0212290045881882,0.194817894052285,0.24227609276600023,0.007529172863287162,0.015338993703697928,-0.03397946777375891
12.786267578125003,-0.12625288633838286,0.013733407733150446,0.18797606966720742,0.007432123988679061,0.0128166852653874,-0.056319248207816225
12.806267578125002,-0.5285164386690331,-0.3589010811817851,-0.6030684804136981,0.021091358922513685,0.016399119210199306,0.03356152808965436
12.826267578125002,-0.12393172569082161,-0.8330218394436669,-0.5548604613887286,-0.016904998734854366,0.10080461383247995,-0.01602859494805545
12.846267578125003,0.504327729300121,-0.5951998253205829,-0.13261195267226492,-0.014257575601753676,0.005254349709317312,-0.15736547114141597
12.866267578125003,0.2703431668791766,-0.06687298633346926,-0.012139607246678629,-0.0045256152131283416,0.008941262121985502,-0.012490039521337848
12.886267578125002,0.3585604855338549,-0.20859986490670937,-0.5672220362605028,0.03494818388349138,0.039985996568637015,0.07705461355096789
12.906267578125002,1.2887980688811165,-0.5818490533236336,-0.5482218789975435,-0.04759489994542557,0.013309710691574543,-0.1283665409887658
12.926267578125003,1.7835452953892665,0.4939937175920124,-0.5039458809902442,-0.011313071563134557,0.06292212107755156,-0.0870940105563553
12.946267578125003,0.9447181600843702,0.762974849422017,-0.40167543677856626,0.031042228517860905,-0.023111916369836453,0.10305152684440344
12.966267578125002,-0.5509631524035522,-0.5260241947065617,-0.08618915753407076,-0.0038861715531236583,0.014525348002877714,0.013055820949761366
12.986267578125002,0.07495060752690375,-0.4717275540494578,-0.13425844846213889,-0.02195047750050236,0.013271841321446326,-0.12391070694854604
13.006267578125003,0.17989575614536388,0.2990812762351424,-0.09476467884124981,-0.02661614101386841,0.047732769226134245,-0.027265351687391717
13.026267578125003,0.7771583847184067,0.492081233033122,-0.3526527709032467,0.02958361614128881,-0.007014885141524529,0.07599748385308124
13.046267578125002,-0.15867742466705184,-0.38912510543024603,0.11185707912293334,-0.046129856997256344,0.004175274377810817,-0.06917217161380347
13.066267578125002,0.7028533851352297,0.2881440920272683,-0.4311173159769534,-0.010353409104796327,0.03324717053889294,-0.07993689969222878
13.086267578125003,0.9819305998870396,0.48207296312168896,-0.35947230591262747,-0.02075755747631282,-0.025211976975172322,0.04960113689700278
13.106267578125003,0.5092198189716729,0.20062377021676772,-0.4393898849578038,-0.00403960656274059,0.058563148808042476,-0.012190434667843702
13.126267578125002,0.30501980078657176,0.30728098705021145,-0.2619448231096769,-0.044894967363775816,0.034826062731245104,-0.07286043328328179
13.146267578125002,0.7565841895673368,0.8171267035627778,-0.4302621253747459,0.013372632004309718,0.004757344326206392,0.05584617404593808
13.166267578125003,0.658155251661226,0.3351251906370794,-0.20950710558497762,-0.009925935069063587,-0.018695247960363107,0.029641033340999427
13.186267578125003,0.2780485739123393,0.37070684435476176,-0.5178161805865941,-0.03447732222468691,0.0698210726731473,-0.11349895491790797
13.206267578125003,0.8763004585806325,0.7496514434606439,-0.22028385393880393,-0.014876389057181588,0.018417972969050993,0.060710587424637585
13.226267578125002,0.9280595400567652,0.47933792342736636,-0.6194028235891433,0.040919525801426916,0.0032975115532823387,0.09076405628480289
13.246267578125003,0.7987108133959885,-0.18351964692810224,-0.3729769227217923,-0.06715552466154666,0.05681018385977014,-0.0979975638846775
13.266267578125003,0.7884748183036329,0.4694236031976138,-0.4236793200177079,0.010655238970863923,-0.007376559022168617,-0.05962671763172825
13.286267578125003,0.30767834948191763,0.6396301151054432,-0.46289701032954017,0.015464423746006456,0.014703661831100386,0.1330985990907327
13.306267578125002,0.5910122848362318,0.07616648990250918,-0.716741485724469,0.013792078696152607,0.05425153793948038,0.04258163282437517
13.326267578125002,0.8555086818390243,-0.1632420318067764,-0.44197014107048643,-0.021924342923071508,-0.005395619698315541,-0.12306926032307984
13.346267578125003,0.26217690593145687,0.371017748694049,-0.4488547583064575,0.008817202405259145,0.05605292399673164,-0.002791169591707548
13.366267578125003,1.1530367939616641,0.48993164887288465,-0.6484656982424895,0.03652519584475451,0.02624222561377139,0.14148611195973135
13.386267578125002,0.86149690028124,-0.4720498732908979,-0.28520275818503954,-0.00048440025909394715,0.00592180959913338,-0.03126799086245356
13.406267578125002,0.45588707080933655,-0.029173792243927126,-0.4143688486044084,-0.0011281807558222404,0.02840994838507039,-0.10029884915759336
13.426267578125003,0.3485271330188428,0.3715780633834448,-0.47656797664974504,0.019234794963745538,0.04383161499545285,0.09886675380990566
13.446267578125003,0.9086969988470529,-0.1933962604914865,-0.22793417307837677,0.03270439633784687,-0.027746131232050622,0.06668253427656771
13.466267578125002,0.3694713320963389,-0.46483709106121496,-0.24991419102724968,-0.023423023417742894,0.0239118868985956,-0.13824946425251444
13.486267578125002,0.55535847148231,0.35747965158887135,-0.25563657079437707,-0.0038819055476817005,0.04832221434511041,0.02377524181592824
13.506267578125003,0.8148805735074267,0.23469242402176374,-0.09303726919290063,0.034178202936545596,0.005697119365490758,0.13300897464488282
13.526267578125003,1.1600854713549027,-0.3436879923480408,-0.31581558430138346,-0.03598777627147372,0.06466080707790442,-0.05129995041371084
13.546267578125002,1.0898918185481146,-0.008219869524515429,-0.06154669568637489,-0.028360679725619155,-0.03200090899215553,-0.07305732766283474
13.566267578125002,0.3516061454863877,0.14611226550616616,-0.25380615323344907,0.031159200185397494,-0.005209997170231862,0.12880273435669218
13.586267578125003,0.7096594479603384,-0.3016897613630036,-0.5858811636619133,-0.029482328153016477,0.07193919051025077,0.08045004986206225
13.606267578125003,0.7655848383406596,-0.6274874718425473,-0.5134706013954069,-0.01713673953926309,0.0034160511412043588,-0.11016747311882603
13.626267578125002,0.25717826431442853,-0.30344264116917014,-0.4050203639122093,-0.011967867656853329,-0.011457949674030878,0.04484673104661795
13.646267578125002,0.5787704540219408,-0.004300454488690196,-0.8591632940430316,0.030334875288002768,0.07050144190933803,0.12652175958933873
13.666267578125003,1.0347112979509336,-0.5611302129920305,-0.6529903340096848,-0.04078549928493508,0.0692109243277667,-0.03427551689372492
13.686267578125003,1.4194046719472346,-0.09966250688446412,-0.5762894856408778,0.013482848746803605,-0.03698932375321468,-0.040580888351551665
13.706267578125003,0.7407599459786479,0.10384617674001471,-1.0045274568658191,0.03406247879467972,0.0042800606066097325,0.14477146762947707
13.726267578125002,0.8742623940910763,-0.31992155557752816,-0.8299437721539327,0.003322220498270281,0.07564853772873772,0.07727977502750817
13.746267578125003,0.3310367212540156,-0.4524955697036187,-0.09382606812389137,0.013850502528710496,-0.044384166373103474,-0.10549075962858952
13.766267578125003,0.4796594472726428,0.3674778000377338,-0.6222839028987961,0.018905804927989545,0.059284938434015284,0.1441193219474067
13.786267578125003,0.6942100148591639,-0.07424368410224541,-0.3229670344543364,0.03931632511488727,0.038397351433367345,0.14607633834783676
13.806267578125002,0.578065819311863,-0.6396815085470569,-0.04706310208725385,-0.024873664630391566,-0.00786243773235909,-0.11632240077604851
13.826267578125004,0.75051270828154,0.6442328585133275,-0.22335658661909974,-0.012355815495375042,0.034721151167322335,0.005083597141782009
13.846267578125003,0.7609472557150359,0.880744814009377,-0.05209901058427342,0.0289587669044299,1.3051209963387906e-05,0.2331880860255199
13.866267578125003,-0.0800517431850056,-0.11880392483841455,0.3169557917926951,-0.005639606277324488,-0.04230434854807882,-0.0026269362271771203
13.886267578125002,-0.19620111051906758,0.2976954946298926,0.04103886264802048,-0.07256122554725541,0.040223654401134776,-0.05533642568024782
13.906267578125002,-0.12263478886178875,0.9615223862373875,0.031760850165381715,0.036594893522249795,-0.07618504573332212,0.1407661590563306
13.926267578125003,-0.40111737789524154,0.11295929388422919,-0.10249127178069009,-0.024492924912463125,-0.030003833434966116,0.1493490209612085
13.946267578125003,-0.262264012405257,-0.22965166475111573,-0.38215391627312795,-0.03787795794994308,0.0025985493287895207,-0.10991913524415052
13.966267578125002,-0.7557131308752758,0.41394158060299113,-0.08451002038340416,-0.05163862829098171,-0.04410979151635935,-0.030721396350333496
13.986267578125002,-0.7245714460514543,0.9173338550339678,-0.6552812259383999,0.026902359369208415,-0.013861713808929284,0.11348142783237584
14.006267578125003,-0.0791396515371691,0.4163461565496964,-0.28108730543000987,-0.07066684408277292,0.06540815576936011,0.012027880886586318
14.026267578125003,-0.17231574064282162,0.6171499180416137,-0.2200205310969703,-0.01310870244153884,-0.018111325496684608,-0.13997743591179196
14.046267578125002,-0.6958490804244815,1.169890045917972,-0.09926654703484313,-0.03813357996393814,-0.027481406435521796,0.04615983531894346
14.066267578125002,-0.2783042031575757,1.0178301555261522,-0.4334290527830396,0.01624183705858228,0.08921534386003653,0.1194705842254423
14.086267578125003,-0.21353218448832242,0.16175648225695335,0.17659184287059768,-0.06531981955951155,-0.00801649254603663,-0.1036949232275635
14.106267578125003,-0.8010699888229775,0.5256068495321199,0.017282296539896956,-0.031190420833368385,-0.047021739101771896,-0.13817021028996967
14.126267578125002,-0.5179025131653189,1.2038489669605037,-0.17335704833525623,-0.03199322745734924,0.07583834020572774,0.09376658644638039
14.146267578125002,-0.5172136244473658,0.45795228529821685,0.10901895466404292,-0.025909573804008167,-0.03384890404135595,-0.0644927698003799
14.166267578125003,-0.5159161734839188,0.8079878379269698,-0.21525472890921765,-0.07917411431456202,0.04669142237265829,-0.1704364952571521
14.186267578125003,-0.16464917464804865,1.3547841631669215,0.0038957448985165203,-0.019622443423644866,-0.060907823589161206,0.046545866143582255
14.206267578125003,-0.23535810262323242,0.9622509434548524,-0.2289221434751093,0.007729035680232233,0.019907435561801145,0.053014187514972486
14.226267578125002,0.2232361624148739,0.18884837716125985,-0.6617377339071632,-0.08068641418691802,0.011562070004933912,-0.17208038856926308
14.246267578125003,-0.10895160116934816,0.8329464260442967,-0.44981488978226464,-0.02241613668057705,-0.02899289116595418,-0.1282529287645386
14.266267578125003,0.5765207905387632,1.20053763448209,-0.4171396604872842,-0.014340306572540503,0.05263971650881726,0.11624682896468222
14.286267578125003,0.07913817537529005,0.376537338009505,-0.5072862532594276,-0.004731935530724669,0.030884203148253974,-0.10815313204817872
14.306267578125002,0.7242756995379908,0.3790265635223928,-0.44786874788956377,-0.08502236849021165,-0.0005669213203226967,-0.14695630822786926
14.326267578125004,0.5441926124314258,1.0460097115728129,-0.4883968698516849,0.05298377513779205,-0.02557628960288096,0.03390609226572444
14.346267578125003,1.1882522961766422,0.40220275211259443,-0.5800667080457341,-0.024135345458889967,0.0074809932480806775,0.08319259986010648
14.366267578125003,0.6224330464787761,-0.07858777391461759,-0.6947490157427321,-0.00893367799971811,0.08922599439365858,-0.16793214570337064
14.386267578125002,0.388815118602917,0.4216399284224274,0.26061770426631853,-0.05080754169608594,-0.05526189831867355,-0.05128063415899115
14.406267578125004,0.41122023423836923,0.8201948947017814,-0.37733927929387207,0.074341702118678,0.03259000218723427,0.15637784896489473
14.426267578125003,0.20582772358790863,-0.22507249129674575,-0.11777373411655805,-0.05148096054843458,-0.029933019156155375,-0.04786345832675969
14.446267578125003,0.19958302340558898,-0.047391859093750946,-0.6559752253521617,-0.01662103360658884,0.09440065111571681,-0.12670404013143055
14.466267578125002,0.7090426825841999,0.3917927273066886,-0.17686367230847677,-0.0036773225105159292,-0.009107464378584696,0.09771454701952387
14.486267578125004,0.4247281238212355,-0.16863681359440608,-0.3501265988470707,0.03082891681667562,-0.008761757653473179,0.0925815190181383
14.506267578125003,0.8351889111327324,-0.7841328800804324,-0.6319380045796423,-0.017477961043547995,0.014823541790381022,-0.046116629860689665
14.526267578125003,0.9130536578472371,-0.5705005539661696,-0.6361279702747151,-0.007657565719045054,-0.019295870717228533,-0.01341386541011029
14.546267578125002,0.9441437100439518,-0.09356152701585031,-0.7948953848613609,0.03345879627243938,0.023374849587820375,0.07723470994578226
14.566267578125002,0.7102874579284157,-0.3028257379277884,-0.7151232627361995,0.004043956711475437,-0.00012004879106812135,0.05728495127245474
14.586267578125003,0.08104326731511823,-0.6435821122866181,-0.4235660307960289,0.04569901169641139,-0.0516616789925702,0.058475631273231625
14.606267578125003,0.4534720462759093,-0.4686239583776046,-0.5494147534662116,0.031036577047996224,-0.02850933057733234,0.0863622722173962
14.626267578125002,0.1871353625865972,-0.7911511743930341,-0.41450096792246427,0.007179800227419096,0.045953723963949394,0.002581863154803012
14.646267578125002,-0.301089532433415,-0.5139276435264754,-0.34766833964635363,0.04904569931175331,-0.06696204531590128,-0.023497453935876052
14.666267578125003,0.514154728651989,-0.04172900873927757,-0.7223735608277687,0.01570753427619256,0.1494145628912498,0.20674951983136566
14.686267578125003,0.9437402639712541,-0.5067541571283256,0.0925752804994194,0.0508389409032221,-0.043846880187132,0.022612220669511716
14.706267578125003,-0.01760636201440448,-0.7305097890716324,0.029099608057724075,-0.031023303247966958,-0.020670006963983436,-0.09806467245431126
14.726267578125002,-0.6818531602466787,0.2706098005365534,-0.08895225151757415,0.028319968381446278,-0.003394817306198645,0.04294918295290676
14.746267578125003,0.10339882064080336,0.15921312973712637,0.22563746793725756,0.015139319985743652,0.0018077177854718322,0.24757057409115907
14.766267578125003,0.41585227706567784,-0.6034473891180142,0.21939842005299173,0.014488070955094783,-0.08341725715107685,-0.0458051445110671
14.786267578125003,-0.25268835065412665,0.07561482246083875,0.08884911268458047,-0.0804546705351406,0.008794676216329535,-0.0772938870093478
14.806267578125002,-0.8208038627184744,1.2666675366801483,0.023653851649713883,0.04531804175030257,-0.008779549868869745,0.16534740576993767
14.826267578125004,-0.007312728527645528,0.44997930428344873,0.25235838437309954,-0.032825509892513365,-0.04682300730928999,0.17785998442023568
14.846267578125003,-0.09155245408487565,0.0713266453937412,-0.27943752623760215,-0.040338236376954585,0.03392318130785699,-0.1874576086681342
14.866267578125003,0.24995665219965407,0.7478431581051831,-0.08752862544602515,-0.09667236694457589,-0.031031452656510455,0.004873292784448207
14.886267578125002,-0.09883825249784604,1.054431523745438,-0.2719825263693824,0.056369789763242646,-0.023798295969974216,0.18603465848909234
14.906267578125004,-0.38337698144089616,0.09231626283843135,-0.07868292500911854,-0.10733863967607467,0.016670342683756372,-0.03860961475737172
14.926267578125003,-0.12844755319087156,0.5453510178265312,-0.6049354350018249,-0.03545415321099783,0.04029594713346255,-0.14862420992419056
14.946267578125003,-0.13236358326308162,1.1234380093619716,-0.039717680322224336,-0.036309905348362426,-0.07939980587196091,0.08891741732665319
14.966267578125002,0.1015116596957811,0.9394043351143992,-0.8715454211237363,0.0004414261565157332,0.11849790915518219,0.07925670757559415
14.986267578125004,-0.35832613872052893,0.3796967927273047,-0.4018858845779531,-0.08109365538986132,0.004291722605184353,-0.19963177607275903
15.006267578125003,-0.5582788453894598,0.907887077179618,-0.5965668288241618,-0.010550713203922962,-0.01310914026136246,-0.010554334636529166
15.026267578125003,-0.5823846562036782,0.9362556006624854,-0.5545074187869328,0.0317993434751656,0.018061913203135355,0.13374773061682318
15.046267578125002,-0.18520752910446037,-0.39029414836584747,-0.5695239506414261,-0.03736454975442573,-0.0056101164281432865,-0.08941146110660109
15.066267578125004,-0.251841503695815,0.11719344521769633,-0.7773453906687527,0.00964039374105634,-0.0055675693023823115,-0.18984137949881613
15.086267578125003,-0.0061980775562111585,0.7545452867070402,-0.6351986765956652,0.001168446780333018,0.043424538582722175,0.12822154420140305
15.106267578125003,-0.11935708530458945,0.35552153158709787,-0.10565580440736208,0.08196528998390255,-0.03934710573044945,0.019437901741086526
15.126267578125002,-0.3874480644813255,-0.19957462714093074,-0.3811545699787279,-0.028141460204588464,-0.008931651546102742,-0.1177690238486868
15.146267578125004,-0.7512655916558709,0.5124397434656036,-0.7325805027938388,0.056470327714950946,0.0888593569229125,-0.006921282205111937
15.166267578125003,0.4227456952582338,0.2534399870407553,-0.08261639923066975,0.03609700309683135,-0.03433848931679573,0.1424045298493257
15.186267578125003,-0.0025586390021522677,-0.584567895075935,-0.26739560808058965,0.05724606342473928,-0.0024127799675778164,-0.10103787378758661
15.206267578125003,0.013733737238672394,-0.24795646586811582,-0.12563097221799888,-0.04752355271047331,0.06467482433680942,-0.09128518794451747
15.226267578125002,0.18439874446574236,0.34658946357559933,-0.08378168492098644,0.08711449760547633,0.016880716902437982,0.0699269590059496
15.246267578125003,0.5791360788650768,-0.3457865335233086,0.1354584542905269,-0.009175251814926844,-0.016338371099152506,0.05022098960203488
15.266267578125003,0.02579149557072271,-0.567628215626557,-0.3352511202594808,0.010615146097617887,0.016151654891476058,-0.1948092142648759
15.286267578125003,0.3826627949453559,-0.023885249143694078,0.12681429437515135,-0.03688996734157738,-0.014772346067906119,0.030075822033045256
15.306267578125002,0.7187147118158432,0.24031562544913332,-0.3724836701254653,0.07483084025854296,0.08145674829441164,0.14798461673856408
15.326267578125004,0.5049200276824399,-0.9643755945856626,0.34116710322182264,-0.10004424436712642,-0.03832122805385391,-0.1556712189705315
15.346267578125003,-0.6074858099884587,-0.19391173658699193,-0.21446859620312958,0.03490421581376247,-0.015321995447088512,-0.06967478687520397
15.366267578125003,-0.5834990975693585,-0.9979122821226767,-1.2079598803505622,0.0371141699015577,-0.022324567329834386,0.3084942100667792
15.386267578125002,1.429976368958137,-1.543819075588625,-0.7632023381265935,-0.05341961409162458,0.17210109760654285,-0.07737397367278148
15.406267578125004,1.2406189736229256,0.23768528537292857,0.5799544971989636,-0.07117322723831136,-0.07996788071481005,-0.4511960328528193
15.426267578125003,-0.7003452703444396,1.6786466847499666,0.5340076490081922,0.03528950610862492,-0.04921639832293783,0.25896177250567537
15.446267578125003,0.20337264691971593,0.11423913096848451,-0.3091568597455957,0.06381076393900324,-0.02902693366097906,0.41946133946998904
15.466267578125002,1.4655890721876483,-1.389832123002593,-0.7231073476360672,-0.11870048350216861,0.12070385990220181,-0.45756085432405585
15.486267578125004,0.6293899154023749,1.3719173592211782,0.7160736720031545,-0.13390015345322834,-0.017770042359255916,-0.27921584768837515
15.506267578125003,0.33313052135010485,2.201002188586077,-0.50698629888261,0.253628306336851,-0.24875374977565018,0.7165615449440409
15.526267578125003,-1.7372246000247609,-2.2112880767686267,-0.7768581222997744,-0.15733664012895707,0.2580114105298218,0.20356930163589765
15.546267578125002,-0.46459603287193607,-1.567011636106691,1.0078082585541277,-0.11723961153705909,0.12963601069595546,-0.8730491281867848
15.566267578125004,0.8177049914250861,4.335267834333426,0.5898930265440707,-0.036962532781666835,-0.3015263919854591,0.05574818050958338
15.586267578125003,0.18148641185305114,2.196485095187357,-0.5809322944455974,0.1305961530887404,0.05013215558780433,1.1026928600014383
15.606267578125003,0.6693983926363516,-2.9037856642627187,-0.5987550220599159,-0.012680286382129632,-0.07155661370550072,-0.24639898522935158
15.626267578125002,-1.883236115454484,-0.8726623055997457,-0.8090393491731479,-0.2519884065579718,0.08451839555198565,-0.9644434715617459
15.646267578125004,0.2853210730927784,5.2207815494985335,-0.7757862718708125,0.11192758621472643,0.02597352579307601,0.5174397106314174
15.666267578125003,1.1153036956754045,1.189537675290802,0.2657121030492076,0.15163938756099568,-0.17047931589044263,0.9587730532235927
15.686267578125003,0.540992629019268,-3.956172081976557,-0.8456601024420202,-0.05975062361292323,0.07044366371673777,-0.6664934210440052
15.706267578125003,-1.7362940476225877,0.1445976327170573,-1.0629708258289194,-0.20287905446116727,0.014641156744063301,-0.8271433615267596
15.726267578125004,0.2485095961322694,5.29273310955731,-2.1967735922812937,0.27751604968093396,0.08452604932653744,0.846265177207823
15.746267578125003,2.7673417036776273,-1.0642689241294816,0.471434745262934,-0.04815280470796803,-0.11656736521394766,0.6452084233075998
15.766267578125003,-0.721304537838913,-4.250986711279155,-1.758827553371513,0.14290025919957602,0.178661247976821,-1.1092840258609578
15.786267578125003,-0.8440660714039246,0.7099124728999527,-0.5284690202833324,-0.31853173837675397,0.010406474267474403,-0.2800664038107719
15.806267578125002,-0.7824875463767604,3.4516814792881423,-1.4183237269721491,0.5383192445702866,0.13771733753563145,0.8757511790227964
15.826267578125004,1.7145867337722005,-2.7118628446241306,1.030244929096076,-0.20399144132175168,-0.1246009930132973,0.2281831385416659
15.846267578125003,-1.2823104307159003,-2.7875768012504287,-2.1228491189006813,0.19161239832794943,0.34290775382942773,-1.0210204784111596
15.866267578125003,0.16662961722500552,0.8160566733250441,0.9982555601796689,-0.2304287983299363,-0.06711710349454963,0.14371448854540828
15.886267578125002,-0.5439826678839592,1.1099955648049908,-1.129145493403144,0.4838041282049966,0.1108544911184873,0.6185928854084172
15.906267578125004,2.409021693742657,-3.7271324864442796,1.2814999295111844,-0.2808962959103828,-0.07210806827696689,-0.2457642217238997
15.926267578125003,-0.697841383451403,-1.4424268061413423,-1.3472935271360995,0.1621288147842024,0.25728678298882457,-0.691683848952012
15.946267578125003,0.9643357192374866,0.9971113743849438,1.0468702237080658,-0.10729000737845652,-0.09897207417620145,0.4087968450622251
15.966267578125002,-0.14090681219354143,-0.32587669996958346,-0.5981226487846639,0.2462493627300044,0.0862371566201052,0.2762689608640977
15.986267578125004,1.9202930406542293,-2.7813179124988143,0.9996701343196804,-0.22359512318454142,0.04580093193785267,-0.4762784914169205
16.006267578125,0.7853606368995011,0.010722186284630135,-0.20439486103375878,0.04215428239724933,0.080744563968763,-0.2124320830259248
16.026267578125005,1.1586648583550958,0.7983238466817995,0.7765105428890109,-0.00023238153943086584,-0.06551926408395171,0.4200854699538204
16.046267578125004,1.0564422587782134,-1.1707777339380137,-0.37804779992787646,-0.024301517764611844,0.07174619173856867,-0.031561820164058736
16.066267578125004,1.3220722467194839,-0.9034082007231259,0.02684415248381855,-0.1325266337809891,0.09263933221341336,-0.4210523760111912
16.086267578125003,1.0945736210566144,1.138609597712724,0.06734580073608891,-0.025913126614599696,-0.03615234295325874,0.132167800609317
16.106267578125003,0.8202367464127045,0.7267482067380758,-0.13612841636863712,0.02814475610595255,0.02815161318595209,0.2892070017370621
16.126267578125002,1.6060037244723253,-0.6410301878943901,-0.32722802534015527,-0.13970037956987771,0.029367676251469584,-0.20747813429105047
16.146267578125002,1.1403687812087027,0.848596588787333,-0.25230012900470167,-0.06226969650718548,0.05319360026634065,-0.18842847855881686
16.166267578125,1.0457440943322789,1.7485870802023302,-0.03460836249602504,-0.015192628611724494,-0.04019940549723335,0.29384753034753275
16.186267578125005,0.7189599919062915,0.5099567247645079,-0.5664260860795348,-0.006231230801950781,0.05359460295104451,0.0973776442476849
16.206267578125004,1.291063590203795,0.3120479152612153,-0.310982376758943,-0.1312953524108839,0.025744581708800587,-0.25158396562290286
16.226267578125004,0.695225113039531,1.9187281146250088,-0.19587881994618322,-0.008025939004093024,0.03419013045098041,0.04243866715270055
16.246267578125003,0.655224059012203,1.8583271734311564,-0.09861032404234281,0.01253803755566224,-0.020370216441222215,0.28312535354643054
16.266267578125003,0.30373777546465536,0.36623910519534886,-0.4530761602071871,-0.04633858248811669,0.056356480248634655,-0.06975457357824599
16.286267578125003,0.9936246272923932,1.161452612353109,-0.1775022704733141,-0.07498412207700388,0.020824450674417554,-0.15824097565696005
16.306267578125002,0.8570938798474893,2.134825030084736,-0.2686387871965475,0.03482843265267345,0.0105391174003215,0.1827740734222452
16.326267578125,0.35917224263164155,1.1349074773300094,-0.3954426296829796,0.004952063182378784,0.012426562344849113,0.11827539424857525
16.346267578125005,0.31562530198210886,0.5098243644519821,-0.28885012672233223,-0.04976503205791271,0.05216322829161768,-0.14960063624074849
16.366267578125004,0.5377135931357213,1.5687128101935526,-0.22461131458257058,-0.00744592171710767,0.08339911608688863,-0.006421656867946289
16.386267578125004,0.4166739959358646,1.4417557379582042,-0.24506344779967087,0.039280857983701394,-0.0072433027672373215,0.15489759848876436
16.406267578125004,0.20006895120653873,0.25597807899783814,-0.30665094454096753,-0.011428551586655301,0.05780458568698396,-0.01256171522310877
16.426267578125003,0.3061704577226162,0.38973214719907434,-0.3507507920203661,-0.010383530530132927,0.03472465444365442,-0.13471759395382824
16.446267578125003,0.43510464038561036,0.950320718032133,-0.26150037578400526,0.021656628058766628,0.0009801444069988021,0.05724726093800691
16.466267578125002,0.542637407961243,0.47264039910638983,-0.42308753873453653,0.05140600576739149,0.01929927585508278,0.10066281370898192
16.486267578125002,0.22165616088282727,-0.4927933631171676,-0.273165322945741,-0.00859180227800865,-0.006949801027658319,-0.11345731884066249
16.506267578125,0.39546037612542906,0.06628835662629255,-0.47928675200409254,0.02012426413663281,0.03789867413317269,-0.043006379340382796
16.526267578125005,0.3090274916771003,-0.05864641753652497,-0.4406986609846137,0.04528448607370047,0.0323171904053634,0.10269030098983951
16.546267578125004,0.705019448661842,-1.010661170819052,-0.48428724392746353,0.022541735099532025,0.029405793154353745,-0.019701748641351723
16.566267578125004,0.5594460895969295,-1.1584448068778237,-0.48365444649043116,0.000886426524714647,0.03564536355522331,-0.14729043956712096
16.586267578125003,0.4793941785250572,-0.4619179949889697,-0.49055575851830174,0.034745206166802795,0.05220385408476475,0.010267965657015847
16.606267578125003,1.3300763926730566,-0.5726331303461643,-0.5974168272045467,0.0504072955862684,0.025720962738788575,0.08847848312899047
16.626267578125002,0.9096129599129732,-1.4082804592141285,-0.3721467121699723,0.018074619405516763,0.033556445014231114,-0.11605351574546131
16.646267578125002,1.0389585544878195,-1.1189932385501509,-0.8466021849276376,0.016037246339145172,0.07123437542488235,-0.047029715619426544
16.666267578125,0.9863473626353173,-1.016663320794736,-0.42691533161726264,0.04875285669739762,0.06680100503136314,0.0824927531297405
16.686267578125005,1.6486813194090086,-1.3433704832926556,-0.29845162143780035,0.01656068915051716,0.06118126060140653,-0.006564942372220949
16.706267578125004,1.3772152665497677,-1.5152330401802996,-0.24751167139459407,-0.0014681356241932955,0.04468819105000068,-0.09896273739175214
16.726267578125004,1.7550923776196503,-0.7940470271061546,-0.3953440189030317,0.01190413275824027,0.09302674742027202,0.0671925944551275
16.746267578125003,2.118013084083719,-0.8071205795917767,-0.253670135839002,0.014561113280573286,0.028308524994702242,0.056149974802856065
16.766267578125003,1.8211028734743349,-0.8891073276032073,-0.07077718475820721,-0.024831756362084685,0.03608491741455591,-0.06281186133779364
16.786267578125003,1.6962108128094773,-0.19107275935466136,-0.44156626490694195,0.0025860115381300527,0.07379521046275603,0.0458791229797959
16.806267578125002,1.6374114947436638,-0.22836713150987278,-0.1527288133339482,-0.007346402780728963,0.05853772939864314,0.1446845652374576
16.826267578125,1.66134532887818,-0.43954629207240375,0.10249669740921127,-0.026083199509361624,0.053788704709555386,-0.008709781290721011
16.846267578125005,1.5797179249619626,0.277110011447303,-0.10412366395074762,-0.03856078034578888,0.01944193916824377,-0.042291327638569125
16.866267578125004,1.339496965902928,0.8100974417041007,-0.1443204151798425,-0.01943890800361487,0.05134063450418288,0.15155111207073435
16.886267578125004,1.5743439381647075,0.5216140031992106,-0.044602106659191613,0.0035847786044895438,0.005333556112089775,0.14476763968529352
16.906267578125004,1.3180879362741589,0.3460190041290667,-0.09505241036313555,-0.07251687722040999,0.017700973377644997,-0.06446433923890217
16.926267578125003,1.0853394707655335,1.473465743488704,-0.042500077555558465,-0.04173503844343464,0.04724196720747296,0.0384164979314266
16.946267578125003,1.092798837514531,1.59196556137134,0.16345285777913476,0.0005748926015126595,-0.007411968415099777,0.269412957419638
16.966267578125002,0.7711202388717191,0.6608237171315094,-0.19362645777466755,-0.022977581941001156,-0.010460481920475885,0.060292391945567486
16.986267578125002,0.5359295640839269,0.7947138435506317,-0.3716693113218103,-0.09208598627696238,0.02121541906127607,-0.08859436165208433
17.006267578125005,0.7620932974071017,2.077752586426231,-0.2598885366648133,-0.008747093669015686,0.054771395303761274,0.14708095786502318
17.026267578125005,0.8988973714701977,1.8568785964896741,0.2198033738968945,-0.008872724916274678,-0.035661442105582176,0.18718296485377553
17.046267578125004,0.43296328937027617,1.2080581483862247,-0.32225470369849324,-0.04383468212931996,0.04729004125401811,-0.033405501333435686
17.066267578125004,0.2970722056475228,1.4880338186163906,-0.05912733800401412,-0.06565867592119891,0.006282395104936035,0.010538677662898845
17.086267578125003,0.4849870494563635,2.055643383845656,-0.1586860757488525,0.01182489478367011,0.05603459933876272,0.16659376120452593
