seconds_elapsed,accel_x,accel_y,accel_z,gyro_x,gyro_y,gyro_z
0.07122119140625,-0.0278019069001078,0.0195645321696996,0.3877678030300885,0.0032753534615039,0.0070353210903704,0.0639928206801414
0.09122119140625,-0.007668501776306816,-0.30575992535176294,0.5168685586291094,-0.003136135379759378,0.02716039169146765,-0.02135043472604251
0.11122119140625,0.015763795743054615,-0.1733288403093015,0.7334683923141433,0.003790463119565544,-0.0039894001096007275,-0.040550346824201985
0.13122119140625,0.012951646442419345,0.061453510914347906,0.676290980224112,0.0123725636769195,0.0031515544981862644,0.04448859663565816
0.15122119140625,0.10039753562695308,-0.20327118407716635,0.7912059705298857,0.013715254968262152,0.006913865595122602,0.019578910285942344
0.17122119140625003,0.1916770061410867,-0.26872739133752727,0.8179031235987335,-0.0006086048517018492,0.006952067172465331,-0.041053830492884275
0.19122119140625002,0.18432648498285756,-0.026959172687289406,0.8561546719301655,0.006691823617747303,0.015213176726819107,0.006881909788951168
0.21122119140625,0.20027556690382547,-0.06882096853301804,1.0139775207479667,0.01471646845912481,0.0023190930212647898,0.03750948985708939
0.23122119140625003,0.17908283332747368,-0.24488969267991617,0.9872300292758868,0.005529660743719721,0.006688060716192106,-0.01647662686874307
0.25122119140625004,0.17350188466252245,-0.11038496027088941,1.051837898777106,-0.0018138098704532318,0.002638195070306198,-0.008851722391199312
0.27122119140625,0.18004177458929688,0.00018467661608279922,1.057829022894211,0.0162284657500009,-0.0016383100435898303,0.03743424236230574
0.29122119140625,0.2141940237265957,-0.1884537708633887,1.0614398361233264,0.0013715868715511593,0.010538043075602108,0.010671660733232407
0.31122119140625004,0.19215168448040523,-0.17125971634237944,1.03221146157261,-0.0038949296717390777,0.016269456195943603,-0.022806710524947673
0.33122119140625006,0.15146599149441387,0.00017544165924584441,1.0860421506186593,0.0033247239281007025,0.008215309842894605,0.01979831955668471
0.3512211914062501,0.13838091532149846,-0.08575585010066566,1.105563028813262,0.006487495486217738,0.008059850925823094,0.035078718815396176
0.37122119140625004,0.1667378604984616,-0.22377658929413954,1.1353182193660099,-0.0022113108154368523,0.00570557451375861,-0.005007670025742906
0.39122119140625006,0.15781972908670788,-0.105975814471383,1.1287627804937388,-0.0017655762490938803,0.007417898932690313,0.006707424079457531
0.4112211914062501,0.18530898456317987,-0.05558937852038247,1.1091830860861014,0.006104640282034883,0.006618033448879595,0.03956078451455426
0.43122119140625004,0.12102666179479826,-0.21001298312369304,1.100698663689498,-0.002132528672406483,0.017787109983560773,0.012971579782682688
0.45122119140625006,0.0842958623652493,-0.16408595327275877,1.165702014054283,-0.0061459621244626,0.019009900872064913,-0.0009813531527875779
0.4712211914062501,0.03228605424885668,-0.0560782269491265,1.2147174516104997,0.005520372667556928,-0.0014949165739209763,0.031631893956719795
0.4912211914062501,-0.04696113200188456,-0.14701060346642542,1.1843733583868172,0.004773838418022311,0.007457646288998785,0.03638994566463025
0.5112211914062501,-0.0031401898553397646,-0.24695587825732213,1.2646255267065956,-0.00010201337147925525,2.383924647283256e-05,0.008500927512324246
0.5312211914062501,0.007203325972593778,-0.12701951109268286,1.213565462368454,0.004572615293578363,-0.0005753083731098819,0.014584829467740557
0.5512211914062501,-0.0321739132123106,-0.173219854023113,1.2538387149633672,0.0023573241731447868,0.007398213753844007,0.034002279092579
0.57122119140625,-0.03731832179763284,-0.24871390970576693,1.276400940154822,0.0080513642706858,-0.002143898993888546,0.009950661298836438
0.5912211914062501,-0.08626021609485889,-0.19569061171934454,1.292614324632437,-0.0026299671568956523,0.011745141495692172,0.006425837764356278
0.6112211914062501,-0.05771677014851437,-0.1054280958217674,1.3919486307264821,0.014289962326220191,-0.00938355091413331,0.0302175054183548
0.6312211914062501,-0.06586076058830174,-0.13723033074966853,1.3622026652046026,0.01394687279788159,-0.009745872623439199,0.028246923403313483
0.6512211914062501,-0.09136482242560043,-0.19135945601288254,1.3773968523890863,0.0031457666783032637,-0.0015366570868413968,0.007294127878625306
0.6712211914062501,-0.13037377352933438,-0.09855282706934271,1.4173102940980815,0.012918970786580634,-0.007932833956017703,0.017139191277256317
0.6912211914062502,-0.20327973286351972,-0.14277931508302433,1.4129084005174635,0.010390902491433845,-0.01215323906035892,0.027805410924810557
0.7112211914062501,-0.281707270054197,-0.1967729463851034,1.4222044307142463,0.006740015501398685,0.002750011213621075,0.009206162583084826
0.7312211914062501,-0.29632541129416257,-0.120021274214921,1.5148092149963297,0.010500701351050159,-0.018416899075118835,0.008800934237162748
0.7512211914062501,-0.3330377674350744,-0.09683053070717254,1.489070407453293,0.01123785906077371,-0.022091949855011353,0.03231269244240671
0.7712211914062501,-0.29119996705605544,-0.14398603742110816,1.4548840447704077,0.01290267780433185,-0.0175151661499609,0.01728641639473179
0.7912211914062501,-0.22550972516743303,-0.17511353064808988,1.522308094488346,0.0014808925505390956,-0.0254320974440458,0.0055043666097548535
0.8112211914062502,-0.29199412388816454,-0.10317554835984723,1.4561805031182946,0.012187285224582983,-0.02235609636328061,0.017409212147751842
0.8312211914062502,-0.33120386480417485,-0.14882872030858194,1.481430383687681,0.00319462090011152,-0.029875799632437743,0.019991897394612886
0.8512211914062502,-0.3888906943582288,-0.1705996091819095,1.5229502692209496,0.005173091984417858,-0.018428904755704273,0.005080209429196263
0.8712211914062502,-0.27529535181593684,-0.09589483510227062,1.5776352866036993,0.007914488461180246,-0.05044119764634985,0.01242168022676813
0.8912211914062501,-0.3177434999332475,-0.1071696798503466,1.4400838392928808,0.007583026799196919,-0.03583444436439902,0.021329405856501643
0.9112211914062501,-0.2782901955984783,-0.1921374165343636,1.49052646731407,0.0013853956143906885,-0.03944790600268004,-0.0006045902364911174
0.9312211914062501,-0.2115693751264849,-0.11197437103625829,1.4688471604604063,0.003420797254576813,-0.03671891491110539,0.001465026584594961
0.9512211914062502,-0.25761268720338565,-0.11643932178052677,1.4259481641244998,0.004211846202742559,-0.040948714653316426,0.014082869423258074
0.9712211914062502,-0.36800375975002153,-0.17951347655906696,1.4231082216974122,0.00010078062569086574,-0.044550496076025466,-0.0025923475350418885
0.9912211914062502,-0.3337536709539491,-0.1354994710656983,1.4484539637431235,0.0016087132164724167,-0.04202485269062185,0.005975599360077956
1.01122119140625,-0.37090278863481774,-0.16712808307695665,1.4744553300353753,0.008094710642634522,-0.060827801849665034,0.013160786009820733
1.0312211914062501,-0.3355636891145528,-0.17678117776023075,1.3491040533242475,0.001345723314507624,-0.04950194579306572,0.0015554741380886254
1.0512211914062501,-0.26520902025886944,-0.19427940740469898,1.496290372610184,-0.0028189510268159155,-0.05423754428032787,-0.0014989110005250578
1.0712211914062502,-0.3677345974177185,-0.12500933314954316,1.4644098953646036,0.011999187616951412,-0.06570785131238842,0.003820345316139917
1.0912211914062502,-0.41311467383049294,-0.18185307548396754,1.433655197059607,-0.002204684566841118,-0.054383788421327836,0.01029195576404787
1.1112211914062502,-0.3557645681574972,-0.19812203061595243,1.5276904265555826,0.006295150157485118,-0.0693100625919537,-0.0019651840004604225
1.1312211914062502,-0.3507751429470251,-0.15814389489364605,1.5056575297606924,0.008437838258830457,-0.08136805019967584,0.0010291126427993493
1.1512211914062502,-0.3694489491443982,-0.1405347544584322,1.4533940941766668,0.0008483353718906835,-0.06064819166028288,0.012453839772796035
1.1712211914062503,-0.3021505026017383,-0.18700948253543048,1.5641886590411498,0.007907305126510163,-0.08681897884037491,-0.006120875431077012
1.1912211914062503,-0.4328502791578826,-0.2475591478461662,1.4637464376953422,0.002781990825006275,-0.07920834997951698,-0.0037005482926426815
1.2112211914062503,-0.3977643497448956,-0.24760678553410131,1.5107771423045688,0.0007701650600162956,-0.06787417617145988,0.007339663811471155
1.2312211914062503,-0.3183168299576446,-0.22469588457387168,1.5831446603505421,0.006955954251303331,-0.08950785053493134,-0.007749990194940094
1.2512211914062503,-0.2698597313761131,-0.16876405545273898,1.549373970388957,-0.003995567040784604,-0.08143332672050473,-0.001611213920565175
1.2712211914062501,-0.2833884502736504,-0.13440685895685836,1.639585228678731,0.006305125054725376,-0.09457991029107579,0.007290749013824109
1.2912211914062501,-0.3422415294614717,-0.1932266051504648,1.6670658358444712,0.000911756410922015,-0.1009141998907299,-0.004217435606552967
1.3112211914062502,-0.2537385951418914,-0.16482383081074062,1.6006643443865882,0.0012295561645070364,-0.0940468132375968,0.0055748497047231685
1.3312211914062502,-0.3353207705082969,-0.19593031486089876,1.6007374530441427,0.005770686125919857,-0.09569918235738893,0.0006848369150244556
1.3512211914062502,-0.3746590296488455,-0.18178180144886835,1.6247150330725384,-0.0032854407111780784,-0.10015974726276917,-0.011866761044557512
1.3712211914062502,-0.4318962888234579,-0.09888103458772547,1.7106837211097317,0.007866982410343712,-0.10440286382122713,0.009475561068582838
1.3912211914062502,-0.4565513368170279,-0.16982455343752473,1.6513011494438163,0.013108715444389631,-0.11222528510298475,0.016610192221093525
1.4112211914062502,-0.4904152888329922,-0.26881880480688447,1.6446407145354673,-0.003237085754741458,-0.0966373144890223,-0.014413687443102473
1.4312211914062503,-0.5935043127717285,-0.20500644353493797,1.817390051220614,0.00270928290043113,-0.11332211808991567,-0.02014168072321511
1.4512211914062503,-0.46849452081095777,-0.12734582088488272,1.6843933501070218,0.011533097349268185,-0.11415177125002288,0.019896073627054523
1.4712211914062503,-0.3829483164742596,-0.2609315471080983,1.7241371914745265,-0.0034931188090168244,-0.1090413447824061,-0.007650724744657129
1.4912211914062503,-0.43512060990134926,-0.18736849362652352,1.8194793236199578,-0.00041039133696150245,-0.1195567318462185,-0.03788641882158393
1.5112211914062503,-0.4714367025878636,-4.9154717641599145e-05,1.7845758711717918,0.004330146499910069,-0.12866399196005224,0.016754332641789483
1.5312211914062503,-0.36310328049529317,-0.13005157952179894,1.7170041977824824,0.006894182334531229,-0.12776239429284686,0.021622375841503436
1.5512211914062504,-0.45717366969998063,-0.27856300055138417,1.7645163582394612,-0.005785552577155868,-0.1282106952075487,-0.037298440890031294
1.5712211914062504,-0.5537695515422072,-0.1559333924069238,1.6374369769099573,0.000953340357277615,-0.12959147230018556,-0.014077662560232573
1.5912211914062504,-0.46349541740154027,-0.14537303059292725,1.6029814204183563,0.005305009478279182,-0.12864713384031176,0.02521919247489504
1.6112211914062502,-0.5994359574942074,-0.38212718395720585,1.6517759991644685,-0.0006748551969514366,-0.12308098224226659,-0.029191021950159195
1.6312211914062502,-0.5396748209161307,-0.28035234913252743,1.6956552539665974,-0.0023701854319540974,-0.14314311272724164,-0.037820300899955556
1.6512211914062502,-0.3848331601114962,-0.09042041913004102,1.6425366033314075,0.006254121106748025,-0.12429830821361418,0.017141110861121543
1.6712211914062503,-0.401867516112632,-0.22666690687917498,1.7127237848555366,0.0047882617100720205,-0.13537021042733158,-0.004870623722476957
1.6912211914062503,-0.18714751946986682,-0.20804548743341947,1.7567951162947504,-0.005873290349333894,-0.1548182260206994,-0.03241411941981223
1.7112211914062503,-0.3746982510142674,-0.02992290684214724,1.6917486136860473,0.004617106067953883,-0.12892975854580097,-0.005162966767744575
1.7312211914062503,-0.26201336080621584,-0.05709776305461022,1.7460131764855245,0.0015142840401880327,-0.14139278867969987,0.0225137083357943
1.7512211914062503,-0.23414096133584497,-0.15910042937548258,1.7469263269200506,0.005565785453674487,-0.15984176841132272,-0.01329836460959415
1.7712211914062503,-0.540480017861166,-0.06920314745621294,1.6858479626290392,-0.005155847813870242,-0.13139961630381675,-0.014455212395389827
1.7912211914062504,-0.5373844233062274,-0.025100559219763213,1.879940231634523,0.0013992816290949567,-0.1484073585384979,0.015886886239716683
1.8112211914062504,-0.5629109362787349,-0.0657732564289549,1.7317899331929223,0.012643482116163585,-0.1712557864918768,-0.004218580616831008
1.8312211914062504,-0.7847860199398118,-0.24314468543150297,1.7511134238383022,-0.018632431020238475,-0.13511505121383308,-0.013250940891208382
1.8512211914062504,-0.4780671987232747,-0.15792877438655115,1.7217735273689831,0.017294187160390814,-0.16078614700617497,-0.0003270946755924746
1.8712211914062504,-0.4498561238994175,-0.2087120219489349,1.6177777391570847,-0.011045935130350557,-0.1417310697869424,-0.009553823919823264
1.8912211914062504,-0.4454075601028433,-0.2978106301848231,1.804133703160331,-0.0029501802144863273,-0.16210703437708657,-0.020520285374551014
1.9112211914062502,-0.293090775141624,-0.11233560359079953,1.547021519250683,0.010175180243566362,-0.17087037069921188,0.00025237042402130865
1.9312211914062503,-0.32415872219341185,-0.22108780903473835,1.5410175463585019,-0.013125326945546408,-0.13311821467894036,0.016027076710660976
1.9512211914062503,-0.46256953697303477,-0.3122551695828465,1.7972085431442864,0.008081853338681742,-0.18022255848440866,-0.021346937247767508
1.9712211914062503,-0.6235066746360672,-0.046176179239239376,1.5713706753815635,0.0006889514685906791,-0.15772298043360072,-0.008085924371175047
1.9912211914062503,-0.6642752670362261,-0.13115606134568664,1.6073047780563252,0.0004081190979477333,-0.13223374984210592,0.021464112594421592
2.0112211914062503,-0.631691374092794,-0.2306971343709563,1.661749950836583,0.02157281684522018,-0.19784539789682962,-0.021952808690670067
2.0312211914062503,-0.6060082528821051,-0.1975435363290106,1.5597981113643997,-0.012898039589789257,-0.14281185427064957,-0.014535579609230596
2.0512211914062504,-0.6431851490638306,-0.16221233510393976,1.6448103182533633,0.02265442606152252,-0.16230646279280594,-0.002472589368009316
2.0712211914062504,-0.5526050097334281,-0.328561266788703,1.7138200661367602,-0.004006649063473086,-0.1700110818648127,-0.008296144079573698
2.0912211914062504,-0.6763769924053065,-0.28823127141171173,1.692494041423551,0.001148875801456973,-0.13581864225348156,-0.03687400593930881
2.1112211914062504,-0.4943670989737601,-0.08075292299987491,1.8310988147540133,-0.0003924905194217139,-0.16885259379687775,-0.010912511070496043
2.1312211914062504,-0.5173493604488881,-0.05795422792439689,1.6096461931544144,0.011444545670585069,-0.16073582634716757,0.00869824740396283
2.1512211914062505,-0.6987839811200265,-0.28362079928685674,1.6907178201410933,-0.011613017466229319,-0.16451601270176217,-0.02836961311501006
2.1712211914062505,-0.585532574931583,-0.1858468417573692,1.6274259066374692,-0.0012481827606688229,-0.17182298457443493,-0.03112392214704222
2.1912211914062505,-0.5107168944119533,-0.08736551825697371,1.6476410250811977,-0.003743470400310896,-0.13877379335121545,0.02048161009374299
2.2112211914062505,-0.48466298785700723,-0.30214599547509674,1.7330835189348035,0.0009482918225982644,-0.1776369959877762,-0.02845222904170583
2.2312211914062505,-0.45791324682749185,-0.09052580175735399,1.5432886463538,-0.013905639756141449,-0.15572821859062178,-0.04832526417746707
2.2512211914062505,-0.5873500674381,-0.005781665932919377,1.7137663332206385,-0.005386496783472317,-0.14441131624674292,0.006877536237766839
2.2712211914062506,-0.3381800767483058,-0.0915486354264839,1.6214738676971074,0.01415311137911411,-0.18951032542393903,0.007632097172883135
2.2912211914062506,-0.4125226481916235,-0.24928019362409173,1.4941142315397204,-0.02551864710934637,-0.1321654153077007,-0.03530903701471466
2.3112211914062506,-0.4275424908105197,-0.18298183342062785,1.846242069172196,-0.010255456210775737,-0.1587245426476987,-0.030542398017282684
2.3312211914062506,-0.16871349431872845,0.06788574557802299,1.5528735479748346,0.012782704891309246,-0.17916769642905533,0.020998874468419637
2.3512211914062506,-0.4301608504185993,-0.18349144312278873,1.5006533997027132,-0.023527230175624123,-0.1412136480370796,-0.010797259070812406
2.3712211914062507,-0.3561921461364279,-0.07004227670322329,1.6036408858965625,0.0037247559545437723,-0.16135998434267068,-0.029196085387325228
2.3912211914062507,-0.6613005461358678,0.01831600164966484,1.5574055483044804,-0.002605537470494239,-0.16703242601783652,0.001671664574678216
2.4112211914062502,-0.8184064626418869,-0.14794101445377908,1.5007147376143692,0.003981138791901282,-0.15536667907687451,0.0009826621850928287
2.4312211914062503,-0.5493127831415939,-0.16551378538914255,1.4552070523487772,0.0018241095594702659,-0.13906492487538677,-0.02742731981154459
2.4512211914062503,-0.6016490285406997,-0.11499423680421199,1.4314445315862705,0.0016209869780982773,-0.17016242615920363,-0.03708867227499729
2.4712211914062503,-0.9183807976685213,-0.09840302605228685,1.5188908542638941,0.0031887253493980815,-0.12485474825526514,-0.0121800833252252
2.4912211914062503,-0.4486498005379201,-0.11206934693821878,1.7718647958913973,-0.00016916273328782886,-0.14617130019948724,-0.012847392187282973
2.5112211914062503,-0.5025314228614152,-0.1634736568167014,1.7652218282958594,0.0037475539299578788,-0.1506843965978732,-0.04470839763103151
2.5312211914062503,-0.5768717214383695,-0.12161704691162528,1.7470089909849507,-0.017431223039334563,-0.14318723364630037,-0.03215593858192966
2.5512211914062504,-0.5151314760353475,-0.03932715295658803,1.5911120716235525,0.011144884742600655,-0.15913221864042243,-0.014641456990358162
2.5712211914062504,-0.6138726230755314,-0.2877633848470945,1.5523161251336908,-0.023462421440987827,-0.11166534526107305,-0.026101514206055623
2.5912211914062504,-0.35650202629250816,-0.2428457531043654,1.5489912656103189,0.0037187993558633146,-0.14030082533627478,-0.052609530090884586
2.6112211914062504,-0.1376664662194073,-0.11616626341931147,1.4132221744502789,-0.015068826623691415,-0.1395336120214029,-0.026574789232116185
2.6312211914062504,0.012884277371599653,-0.15274425754430776,1.3339217974662083,0.0026653240043290386,-0.10057399834583718,0.0027709896858831846
2.6512211914062505,0.19862903244699928,-0.3690142753817299,1.4636021432193045,-0.0013141309700490655,-0.14039218309101514,-0.021444714745129885
2.6712211914062505,0.08356861670693912,-0.27927916821886783,1.286430180150374,-0.003175643045272624,-0.11091886595653112,-0.03244377283111021
2.6912211914062505,0.10465539459675538,-0.23667405323916738,1.418610604309846,0.0008372206646264998,-0.11741492052762482,0.0073455627830884655
2.7112211914062505,-0.3409321460666688,-0.43619542755240137,1.4552912995010383,0.012356219499915586,-0.10732073909749411,-0.015620306260077542
2.7312211914062505,-0.3725607091148354,-0.41749715359023387,1.3351050895153624,-0.003855780450805142,-0.10991810093066544,-0.05990623049304151
2.7512211914062505,-0.24583151152480992,-0.16818736150250083,1.4139970283811747,0.003246456325082872,-0.07043460086427482,-0.014967671704606137
2.7712211914062506,-0.07785750093180645,-0.25630702554380247,1.5727832723791604,0.018583667113970064,-0.10638419444159536,-0.0066730612751360495
2.7912211914062506,0.10998239077387016,-0.4067706825073983,1.521764172307488,-0.012503608114153561,-0.07020166016645991,-0.045567219582346545
2.8112211914062506,0.040620327839106594,-0.16506430595852079,1.709681318463669,-0.005054347305955906,-0.09072700358947386,-0.06503137747611884
2.8312211914062506,0.18271358381019442,0.11525415996518586,1.6211717202040783,0.0012542236791084327,-0.08199574428532166,0.010667655096956637
2.8512211914062506,0.23578148886409128,-0.023193705536082982,1.5237443358741583,0.005676111858887527,-0.09005836371384655,0.008054842590698788
2.8712211914062507,-0.009319445867022314,-0.20263943976729099,1.5115385658169296,-0.017013323887139078,-0.07476428179491544,-0.05580234577055571
2.8912211914062507,-0.06800984994895906,0.08548815528719103,1.5678300838533457,-0.006889386351977437,-0.061409346559924124,-0.020924847363896267
2.9112211914062507,0.1937293047940335,0.19764087951417458,1.6308436701755784,-6.379185134168996e-05,-0.08476203180039972,0.021169850425033953
2.9312211914062507,0.16745332651451864,-0.09052148599308342,1.4636353421122257,-0.0006736180585190343,-0.0833562174116178,-0.013337185579365354
2.9512211914062507,0.04079566032036524,-0.19306577234538608,1.481385399853609,-0.027581324683241662,-0.026314855768126824,-0.031105122025748586
2.9712211914062507,0.41751658543042836,0.06360723872764289,1.5956940880118897,0.006599220597476303,-0.08804525394946114,-0.0015487263869933508
2.9912211914062508,0.19883393932082927,-0.155838016810384,1.343983576537929,-0.012557678638564251,-0.041434404145547554,0.010080043944645156
3.0112211914062508,0.40746228098786186,-0.28547485468038913,1.3469936041937016,-0.013798842755746422,-0.024161541868735897,-0.02065802962205992
3.0312211914062503,0.3640194958059279,-0.14987969654798505,1.4864958214121853,-0.014201181586952733,-0.06576872271935995,-0.045020023097333585
3.0512211914062504,0.17622803987041633,0.0030536360542503943,1.2168254982667965,0.006290585323493532,-0.02417660935432907,0.027530956609198826
3.0712211914062504,0.3859105882524348,-0.2562328002301621,1.3292832954844604,-0.013661217916768088,-0.012553657810989308,0.020681871745645893
3.0912211914062504,0.44478999326700835,-0.16623429299763223,1.292273209994927,0.007681386312095343,-0.0504900668077212,-0.06743842562936551
3.1112211914062504,0.17024170082913112,-0.11068331596919655,1.382610996586092,-0.024474468078022674,-0.0025031595866314912,0.029796582493019096
3.1312211914062504,0.2876901880548704,-0.1291174929369589,1.3417406237417302,0.03764820074322848,-0.027077125995621322,0.0501248542277889
3.1512211914062505,0.06547730411045591,-0.49373523624624116,1.526453940693659,-0.037171714872842744,-0.01456066570772567,-0.03995993113797154
3.1712211914062505,-0.0211557522120228,-0.16090556246099164,1.354582437712173,0.009317445686915915,-0.01504221317386896,-0.034622040749946
3.1912211914062505,0.4339183640457099,-0.01949866393969715,1.3478551104873469,-0.0012575927780995174,-0.021619842706014112,0.07234637212441876
3.2112211914062505,-0.04768066050163264,-0.25012205024879114,1.2463464459458153,0.009740739342124452,0.003271609721093467,-0.03050435655886129
3.2312211914062505,0.06653621156837154,-0.2409055540597665,1.587210720309017,-0.02672222671655968,-0.028094370213691103,-0.032804794858328705
3.2512211914062505,-0.15841547230949354,0.13775703237290166,1.1433554185838646,0.040010293549803594,0.0003408419953511731,0.034491459254336165
3.2712211914062506,-0.08129097736215068,-0.31353565952515317,1.4873243805097558,-0.030476614667764284,-0.01882130505935322,0.0032980513170403234
3.2912211914062506,-0.03148222429321909,-0.12917699099655577,1.3373957383522084,0.01646637382960278,-0.009837594450852218,-0.06951928931070123
3.3112211914062506,0.1687723324272976,0.046640486239965744,1.531662834510912,-0.022303306282862003,0.002649471313610188,0.044116554652598415
3.3312211914062506,0.321306225741338,-0.21442888022989617,1.2699554042309815,0.02569624938405461,0.0038689437092546157,0.02838054269021269
3.3512211914062506,0.2905460028544155,-0.4070884672172839,1.5507371316070997,-0.04351603830719479,-0.011958944762065132,-0.0567147695906052
3.3712211914062507,0.21656470961557592,-0.032462207176871385,1.3392660402849088,0.001509685887446815,0.013846638519685359,0.008704598110450225
3.3912211914062507,0.1935434723373381,-0.10505009088486544,1.3227917435063494,-0.0026381457647266285,-0.04485999840713255,0.05756685017509126
3.4112211914062507,0.2931270174095174,-0.3970605748762476,1.0369270955402734,-0.022804934277013748,0.029797276730134156,-0.0022518464501149775
3.4312211914062507,0.3369222862338911,-0.2919205209991762,1.1658871755940803,-0.010956109123766388,-0.018847673280401673,-0.028552746234921437
3.4512211914062507,-0.1484683971445171,-0.16210693378061267,1.0311552046697738,-0.010514402516041578,0.014075138213297407,0.022241874900226347
3.4712211914062507,0.07711226845852115,-0.05230540498882772,0.9421295252002218,0.00039404342320966133,0.005001163266078053,0.019319592681434426
3.4912211914062508,0.17505234350696747,-0.2577457981987822,1.1773471717806736,-0.019991365556084238,0.023711359505968928,-0.0011673650271147205
3.5112211914062508,0.1781292593836525,-0.06358587079478197,1.0320132694847717,0.011396240406998867,0.003080513916288636,-0.02522550684671835
3.531221191406251,0.14171645694816692,0.09657524802388102,1.1485396832658394,-0.022338570228882266,0.004797519170699566,0.02378683679373189
3.551221191406251,-0.038045282650251415,0.04734053234413319,0.9754718962787742,0.027809807022319794,0.019788110228114216,0.015263373062627539
3.571221191406251,0.24437754151667537,-0.1949439774783316,1.1435103577214578,-0.025632957651918042,-0.031486617941707,-0.004149703124843374
3.591221191406251,0.004525813043858521,0.05124665771532395,0.8951876791882912,0.021334103678402612,0.04408675779245627,0.00863967483719186
3.611221191406251,0.235971923062953,-0.1675177848703772,1.2850836169765065,-0.006182243163679976,-0.04102040505487774,0.049333310379803985
3.631221191406251,-0.1621447258131423,-0.2136761145814055,0.6214145749309852,0.0276224521029703,0.027758374740607127,-0.011086382727249001
3.651221191406251,0.14600524376163268,-0.2654663161975635,1.2698746859734382,-0.043633736567037666,0.02115758735571836,0.005042164824019056
3.671221191406251,0.009617020447942281,0.015039882244566554,0.9554208816607557,0.06391760211930711,-0.043868119273401965,0.00537184321153885
3.6912211914062505,-0.006823780382829518,-0.11618879477746524,0.9796334924206086,-0.038455604710749575,0.0252714494931456,0.0628778522213419
3.7112211914062505,0.021390231282745302,-0.10923539392106821,0.9786461500400512,0.03851645385185491,0.04223957723610126,-0.016850738673819265
3.7312211914062505,-0.18224856917448992,-0.08698644223767872,1.357875292941854,-0.027051088898207457,-0.08028331516693459,-0.022836592588854385
3.7512211914062505,-0.17850803504327745,0.08139930318481586,0.7383088988467525,0.02307436886118167,0.0837705779493165,0.055143534510463374
3.7712211914062506,-0.11413177926868463,-0.20937506179368615,1.3183665307601953,-0.011211906924683933,-0.03839906176165486,-0.015582045944095449
3.7912211914062506,-0.19012728409475896,-0.08557418118779511,0.9083303355496734,-0.00860810246091241,0.032082666238460504,-0.0460505263522733
3.8112211914062506,-0.14757743273138432,0.19314063301630044,1.300684137698262,-0.01947870762244706,0.009624417900579307,0.019235825481064978
3.8312211914062506,-0.3327495363634085,0.08836302298037657,1.1893029317807042,0.020857009764247487,-0.037954394481660166,0.01151178962448155
3.8512211914062506,-0.01356010746565104,-0.12484673080538096,0.7894686025835281,-0.026764813187865936,0.007339048300218836,-0.005561901073923259
3.8712211914062507,-0.04731661973920855,0.018479385112577296,0.836937241815065,-0.002854816296620667,0.028214409582864718,-0.008398755895105931
3.8912211914062507,-0.02050167162965921,0.012219256779309398,1.016727027048194,-0.007675373831293909,-0.004416027334788528,0.003943461345544557
3.9112211914062507,-0.11264340991624917,-0.07727522015981851,0.7425515009650071,-0.00450634094281887,0.005876764789005553,-0.003900961758386458
3.9312211914062507,0.2976064759870177,-0.09760327414047264,0.841547616724267,-0.01666836091688917,0.028142991497880923,0.0018838659276286809
3.9512211914062507,-0.19293874973837502,-0.1516332345027813,0.9709714097551772,-0.002026534097590453,-0.00509068190078317,-0.024567932470177148
3.9712211914062507,-0.20303154295379516,-0.07839827374315253,0.7939921644833342,-0.017834820997396868,0.0335408558884999,0.011890334991937085
3.9912211914062508,-0.7187563325099277,-0.2126260809389575,1.0295026758251793,-0.008467949933415797,0.008186835097455603,-0.04342227437462855
4.011221191406251,0.19437008716295714,0.08134942640014088,0.7437993646034244,-0.006662207122792776,0.011193997976169871,0.002647796126104701
4.03122119140625,-0.06215997039711569,-0.20088808686566248,0.9630812431928458,-0.017920846677057723,0.023495836379929205,-0.010876058987308502
4.051221191406251,0.06415843099056112,-0.06546274383884507,0.7312093444345249,0.0022967106367590435,-0.0019132185102431088,-0.043847865291950935
4.07122119140625,0.34139891720358456,-0.07814959553275412,0.64064944502238,-0.029782750663496317,0.010420420077419152,0.007803773727625819
4.091221191406251,0.2477520254443881,-0.24361976774912292,0.7960306509144855,0.013998801030503811,-0.024828991463928543,-0.004589917956659466
4.11122119140625,-0.030045287824128446,-0.22477425879660562,0.6519168260107684,-0.024160777056262437,0.006660764752380143,-0.052994543629049366
4.131221191406251,0.38541947858909975,0.0019125238398732501,0.4362428142826394,-0.009358940300497725,0.06838620415575151,0.02105172495105985
4.1512211914062505,0.23269618683999294,-0.34624287545104093,1.085733983384948,-0.008994493613848457,-0.043242728453016965,-0.005363439190693169
4.171221191406251,0.33744112995433295,0.04394181056153972,0.5013384118093838,-0.011537571006212307,0.049054370953036316,-0.048006028505000437
4.1912211914062505,-0.34499270748941674,0.0030862003352693256,0.9871050918122701,-0.0313271856235,-0.00909260050254454,0.0024087375636085147
4.211221191406251,0.16399702995607154,-0.018160629130895098,0.7695329883827825,0.028311614899664512,0.002831388405100893,0.07207794346695663
4.2312211914062505,0.08092097745879082,-0.3754337396761903,0.8309151771472203,-0.04465065010338869,-0.010046828681893872,-0.07614877754463584
4.251221191406251,-0.2054467032655817,0.26452695325817704,0.5730980169534147,-0.019314743748119523,0.10436944733332529,-0.03830081950451989
4.271221191406251,-0.01469915224605343,0.44707590628874466,0.9765475559562636,0.011430790281096026,-0.04943952638861555,0.08291864851094032
4.291221191406251,0.014239523576993655,0.03179320836660808,0.6328277668755832,-0.016695117632045987,0.027027940159694903,-0.0204013674121552
4.311221191406251,0.31817002604351213,0.0884602585587114,0.6638065680892882,-0.024210464911365723,-0.023022525155127566,-0.05867226177976025
4.331221191406251,-0.2315176376810312,0.13138654009029513,0.5809910875854905,0.006533630341180256,0.03842800321265945,0.060251928203969934
4.351221191406251,0.004840613948515367,-0.04264138044402865,0.7249356985746984,0.0012087687861123007,-0.004115278380726227,0.04007407440442131
4.371221191406251,0.05161547470023177,-0.24657189140608884,0.6409184593712879,-0.022651261136369224,0.01961667988375321,-0.07233744900591703
4.391221191406251,-0.10503391174661862,0.15540590701707455,0.4939861866402219,-0.008859372003338594,0.005883337546644602,-0.03467714914120168
4.411221191406251,-0.06430537915083441,0.1424957552179303,0.6751895855769042,-0.0010692442267871453,0.01792650889992157,0.06767631077073828
4.431221191406251,0.0294744708703443,-0.07277247754223297,0.5348647976467595,0.013365967859201187,0.02491838755124506,-0.03901368898520164
4.451221191406251,-0.7277138889957648,-0.22077531783319496,0.7470984096134226,-0.0482946901611018,0.003437444499156655,-0.11067215286962996
4.471221191406251,0.17524229493729337,0.33258435361910155,0.5591367415836425,0.025535592219606076,0.03050385407225405,0.04187544439463756
4.491221191406251,0.3655612728620134,-0.2344695162542456,0.6907712567692903,-0.008829049698729182,0.0033935095345899538,0.032414265698807426
4.511221191406251,0.17544461500553535,-0.35185726015441277,0.3912521775964011,-0.014648034840684837,0.04880522789430138,-0.10901729102960167
4.531221191406251,0.15790637072106195,0.10838842396086411,0.7157608204713114,-0.02274606783642438,0.013212099901999697,-0.013413380916031462
4.551221191406251,0.06007882446244179,0.14702515835357516,0.709859545299272,0.050184716561872816,-0.054560164009129934,0.10969919715379822
4.571221191406251,-0.8061514365365832,-0.777630743218425,0.5373780466830106,-0.022865320040792596,0.04185197434450166,-0.04798421853095363
4.591221191406251,0.06905394003437297,-0.4994161753103345,0.414955694723866,-0.023758048670243018,0.006308072273051706,-0.10900807775350653
4.611221191406251,0.47667839055942823,0.09655588498629913,0.571073187029205,0.013632060366177945,0.03903460788295659,0.05304903313912195
4.631221191406251,-0.11674386895600625,-0.29453967572631146,0.6458896995788798,0.0021077917514874165,0.024933258324567997,0.0011700964165819948
4.6512211914062505,-0.014478974826898462,-0.13429976751959777,0.6585433047467325,-0.021758911987068884,-0.021037739917435273,-0.12185968148520368
4.671221191406251,0.12580408387913303,0.5302975767163862,0.4072828310803195,-0.005256932389514778,0.08270721829762001,0.015591561175136175
4.6912211914062505,0.6304876491179187,0.07417833971966199,0.774243406071696,0.018406983766437495,-0.015721307305369317,0.0841744566725089
4.711221191406251,0.16673421573161562,-0.3584002393594868,0.4181505319507608,0.0068308065954717275,-0.024226697157106295,-0.06392210521164997
4.7312211914062505,0.2274603475195688,-0.170749783407978,0.29228636685625103,-0.03313197130625669,0.06902766334353927,-0.021074851881197926
4.751221191406251,0.24879838616830124,0.0604208701893647,0.49537386959454016,0.056368588387795154,-0.05853460019259604,0.043158513083592316
4.771221191406251,0.23410564589844554,-0.30031094484609705,0.16350655149050913,-0.016889082747876004,0.06490441620955113,0.0010355966469711754
4.791221191406251,-0.4601341362656086,-0.5478487060351269,0.4872165333924637,-0.005549986486785696,0.04819345476986466,-0.12705678161028117
4.811221191406251,-0.10207677722251565,0.386751311717375,0.7784692251624443,0.01887399826014622,-0.0341947394376733,0.006376156459627573
4.831221191406251,-0.40754554707864016,0.2749518284636707,0.6615711551475896,0.014014601618875076,0.09684237614501451,0.04017838810707908
4.851221191406251,-0.0871343363700047,-0.17283511879227245,0.9944326579813016,0.0058720572686129235,-0.05749573683746932,-0.06394940514988595
4.871221191406251,0.51283552831627,-0.03149929370728119,0.34340967193311905,0.012467391956821986,0.03771573166514116,0.026246103517852584
4.891221191406251,0.42734647603970244,-0.14269605616713668,0.36916575533108165,0.009638994659844633,-0.0026476792056229818,-0.016936934481479232
4.911221191406251,-0.1434133792727475,-0.20718224888249828,0.3052909064498395,0.004605003336684197,0.023599822112455295,-0.049485969506875595
4.931221191406251,0.22912211015147715,-0.22616732141601642,0.5826863046649667,0.00829826989681417,-0.034538031153701965,0.0264535331497345
4.951221191406251,-0.3166082698116403,-0.0896866593739613,0.5043297345372362,0.03044121313035716,0.030634504115655135,-0.03083646495574647
4.971221191406251,-0.539577451402582,-0.20681226949673082,0.865407272902553,-0.029060498852747432,0.012580464810165913,-0.05620620529123955
4.991221191406251,-0.1355782814942221,0.05411397557393851,0.5019607468893863,0.05486969801887253,0.017414232070121095,0.025848638034175527
5.011221191406251,0.4137449094772289,-0.3364338259480668,0.31052856434267617,-0.0016515900818405813,-0.0007112714949727468,0.017819513973339685
5.031221191406251,-0.2681694678959097,-0.5402278373004588,0.5471737577597248,-0.009777033595873487,0.06540284407951641,-0.10513611510887963
5.051221191406251,-0.0693114290985414,0.2530146328943788,0.7080892245651889,0.017481291788523597,-0.016300829987714427,-0.018753454215654625
5.071221191406251,-0.00923410802987313,0.04236435417746886,0.5447521234313537,0.0076827922502224815,0.0033404639026784026,0.0504481025384549
5.091221191406251,-0.04479244021505831,-0.1340285866657087,0.4019485903751569,0.023690228976200614,-0.006551733805302068,-0.08441149069173756
5.111221191406251,-0.3714735396377519,-0.2625588982447897,0.5446645427445426,-0.029825869179013014,0.05406406849024269,-0.0445175353573244
5.131221191406251,0.39649732872378834,0.1530754147253311,0.18984285951235713,0.05788817828236147,0.022338396589815207,0.01870560532600809
5.151221191406251,0.6317123148203573,-0.3785002453189959,0.7269880195924108,-0.030340864196614227,-0.026575625465360242,-0.02409594960344409
5.171221191406251,-0.02325081197140228,0.04166400279130951,0.18808785013815463,0.04920829809303652,0.0334157692240716,-0.08402453058923166
5.191221191406251,0.27042037934775226,-0.06763260345818971,0.928832364472783,-0.0265731697807151,-0.03639926044289828,0.07405849790245018
5.211221191406251,0.30492623218506265,-0.11678309321279341,0.2557956225122053,0.08020391815986237,0.02207594802604756,0.008636748273721455
5.231221191406251,-0.42098241183834667,-0.7132085643809325,0.8194416402776371,-0.0732548138255527,0.0135599586169728,-0.10785585471334908
5.251221191406251,-0.4894245843642686,0.2276447952094405,0.25357221078277176,0.05665772077711243,0.04715462988435007,-0.05785043715869773
5.2712211914062514,0.1974220010884768,0.36653782671663787,0.6078145538083559,-0.0031994029709832604,-0.044193703629467264,0.07354756205301534
5.291221191406251,0.20778760134613564,-0.2293053056457514,-0.2163851661027596,0.046199542761023275,0.09532523701894226,-0.03928907676841018
5.311221191406251,0.8346535693304815,-0.3034116498764971,0.9267097855115329,-0.045470899310199216,-0.009869623156070722,-0.07413571539530564
5.331221191406251,-0.16405934889984783,0.09131814574481047,0.45522460648415386,0.08161962655303819,-0.01949752379535943,0.0059484482489941155
5.351221191406251,-0.19591135471283808,-0.3223721679255698,0.7830388006164269,-0.028013987885315006,-0.02728250664980546,0.05339102185368381
5.371221191406251,-0.3668543282618136,-0.3515164607376569,0.3685239555084244,0.045976301712529415,0.10115902015657224,-0.062450690481435506
5.391221191406251,-0.4317449367140527,-0.02594938101161344,0.7461133604589415,-0.03168383079692754,-0.025472597496526233,-0.09161094372453595
5.411221191406251,-0.4566759441896711,0.35380016693886485,0.23822227351898898,0.04870214690594188,0.06336542038619901,0.03444592765125563
5.431221191406251,-0.015259551062207319,-0.12360965652876517,0.694599531942646,-0.0020429368328975187,-0.022297931356118968,-0.014593259124386698
5.451221191406251,0.05758353300903779,-0.25247841445600977,0.4942210661111323,0.008956985976045957,0.0024473556849918436,-0.11056720413371106
5.471221191406251,0.48718301173617523,-0.14228279633121546,0.299032823445407,0.008393068493637778,0.005984408945226384,0.02834523245493639
5.491221191406251,0.23159951007060198,-0.3669523603731281,0.30220646088180547,0.0334524400679774,0.015731273384152603,0.011333428855359484
5.511221191406251,-0.644802559067777,-0.5363442602136931,0.5239406720265247,-0.02303408336222745,0.02325591445862711,-0.15993850537482646
5.531221191406251,-0.28466744791577814,0.2370364033290238,0.5696735038568164,0.00828981006213024,0.008959612222660127,-0.03323750838653143
5.551221191406251,-0.1427688017382612,0.20422404138852884,0.7052510908542364,0.031142343281494563,0.054087482540650864,0.06638172486310831
5.571221191406251,0.8259608908448859,-0.36934186888653414,0.41948149080041836,0.0038216887316879543,-0.044776510069510216,-0.06792835576579462
5.591221191406251,-0.022380563653868677,-0.07932466048948168,0.37038939356887424,-0.02613678163606942,0.08943990919275485,-0.10987057804853151
5.611221191406251,0.4327813509725141,0.3484786225511292,0.6286443573149464,0.028791928092816988,-0.03492136588360733,0.028270483520478236
5.631221191406251,0.3285121012377415,0.17812816991376673,0.2883679216533223,0.02228551360023315,0.008475665190364608,0.04200050328634064
5.651221191406251,0.3203652449854324,-0.30352584572517527,0.5184333031915495,-0.032574402523533844,0.03777442403752695,-0.1049416649069085
5.671221191406251,0.07806502533137653,0.3479250109563037,0.7396398236277009,0.012387532702739913,0.01670358635466772,-0.03962660959170315
5.691221191406251,0.24948433432158698,0.5111271762881211,0.4921327904872616,0.011725711785914746,0.04657174616963974,0.10209929359923385
5.711221191406251,-0.1056920290179616,-0.37902338849755196,0.8803678721672338,-0.030595270097932475,0.02285581241275874,-0.09418718171409932
5.731221191406251,0.7882858158360926,0.4333053642804416,0.42250259524442335,-0.021403783011094458,0.02076607227884024,-0.11012476342390336
5.751221191406251,0.5367320048796134,0.5440601654143509,0.44638884466397405,-0.020653655941227197,0.03603693890586592,0.057034899457180974
5.7712211914062514,0.35361196072966794,0.1508522675695543,0.8639276143711326,0.0012436930499614242,-0.031873699797084876,0.01238922359145935
5.791221191406251,-0.1385942003299528,0.08567667207786592,0.7102174162537848,-0.047100791100242206,0.050591440517900876,-0.07710003509914772
5.8112211914062515,0.18308890716052895,0.48326984608931867,0.63989228820699,-0.013989858149081685,-0.04462732045843553,0.02367335689192591
5.831221191406251,-0.31336881416754125,0.20652849540874774,0.7628505751894553,-0.01446590918281309,0.02174937799140354,0.06132294660256623
5.8512211914062515,-0.4890165008978413,-0.0784168938782609,0.5814821777057324,-0.04894578938383119,0.07398225138983622,-0.09132896268884862
5.871221191406251,0.2737667342706886,0.3241601252370452,0.6080782335917719,-0.029158549722618627,-0.04998866176782686,-0.005465403572924832
5.891221191406252,0.4512528363679196,0.04661285524098968,0.4490191864702523,-0.028050151548923614,0.08913767382888703,0.07834631411546036
5.911221191406251,-0.48135013471253507,-0.4035453117133248,0.6440205514312201,-0.044070728293775244,-0.007315727265549112,-0.13399693555651188
5.931221191406251,-0.2547778730973903,0.09115842133030015,0.2884997379186087,-0.06694825248682255,0.027996496216973497,-0.028441051333560004
5.951221191406251,-0.016086527672481744,0.2647942049952833,0.3038890559502376,0.01580146989464807,-0.011780379630508963,0.06720364819809728
5.971221191406251,-0.2877368366377978,-0.4573600305263357,0.2589300824395904,-0.06575931915809895,0.06231658144373712,-0.05796878802711318
5.991221191406251,0.02253168110325836,-0.16090974438273545,0.30897786862820115,-0.018276240466898377,-0.00966959146865159,-0.0673158199452318
6.011221191406251,0.27925901590211905,0.0317336113157689,0.15692881044062165,-0.0076097639251128885,0.006222306061566307,0.07733032313242262
6.031221191406251,-0.19948606425458712,-0.4031256632498146,-0.03248662843559638,-0.009845169560858322,0.03128029859067054,-0.04744412105788562
6.051221191406251,-0.1430919473192602,-0.5226150619850072,0.4510438064346032,-0.05535268407759487,0.04482077320406573,-0.07196130094174152
6.071221191406251,0.06438920119445599,0.31715256775338946,0.062391013200312796,0.04769693100754838,-0.03167973949195291,-0.000449670022614307
6.091221191406251,0.006389453734455347,-0.11435043453565495,0.21427485049559677,-0.05093454749769532,0.07722229115382552,0.028185062940371805
6.111221191406251,0.5233416834712129,-0.16982293096510623,0.05848013490931793,0.04312299530223705,-0.02314486583681629,-0.10951353823781491
6.131221191406251,0.08667298249958066,-0.1712541204852788,0.45676103694215947,-0.04810611069045021,0.02635710268518158,0.002002635080606116
6.151221191406251,0.2604991528436255,0.2895948960911481,0.17453777900122594,0.07183486931589153,0.013905727790709196,0.013526776834358831
6.171221191406251,0.06014006006232436,-0.06981190281010213,0.8202083148021773,-0.04605805515859188,0.005041732682868075,-0.026319413349936333
6.191221191406251,-0.1265022055132646,0.44347609568176105,0.16651145562221423,0.053623531768844164,0.04749567854738296,-0.06132436102860813
6.211221191406251,0.4136617029763646,0.44047446250008593,0.7224716506536089,-0.03074714647138604,0.008462832051801946,0.0661109796145523
6.231221191406251,-0.33158115125378756,0.09744020652610381,0.25050460280626285,0.06605036762803933,0.008853592893096104,-0.06332502602558363
6.251221191406251,0.4685125145765274,0.08009219672433385,0.6469273867617655,-0.07002126670518692,0.050067655867511926,-0.029166678262692376
6.2712211914062514,0.15365908718523152,0.3797271071011523,0.5930863785053724,0.0711396467852746,0.010482488071901176,-0.022178787511546352
6.291221191406251,0.35325690695460227,-0.08723964465990135,0.7424836358454828,-0.032063934318833656,-0.04500374265488627,0.027283520127785794
6.3112211914062515,-0.4543389280490852,-0.10134756541526936,-0.1298368065664965,0.04729778275210121,0.09757873356097357,-0.05118519649656895
6.331221191406251,0.3020171718519049,-0.09591816741782302,0.9014677757131535,-0.0475622479623752,-0.011922966368875238,0.01579120335033925
6.3512211914062515,0.16018391938428983,0.21624639161402467,0.4454657583648081,0.06192914830810504,0.0032882208030751443,-0.07568124282088085
6.371221191406251,-0.22015005258932208,0.14662152450243368,0.7663224784520983,-0.06360539505653333,0.03225044137304177,-0.007736084618474075
6.391221191406252,-0.21836591058133303,-0.0466716734175291,0.5829343054555873,0.04917975499623985,0.048804812241588606,0.01226617872643115
6.411221191406251,0.3049858341330012,-0.2951526445545669,1.0735135521987083,-0.050239734055816186,-0.02259877042971269,-0.020422532670590566
6.431221191406252,-0.2564477657216479,-0.09931937393209064,0.31470123576760706,0.02043987163481926,0.023598271839155322,-0.06003104157430469
6.451221191406251,-0.036384135020511486,0.0326035813036152,0.6870699501219585,-0.03531040067390508,-0.006844988837275389,0.05592236033807813
6.471221191406252,0.11845175449546005,-0.3972053506443729,0.40739397055791104,0.01776312068293301,0.01423499779540021,-0.01135627997167661
6.491221191406251,0.21007272174088787,-0.4270381763691426,0.18885011318132067,-0.05230919248279335,0.05042980042061534,-0.07858683798127962
6.511221191406252,0.3378927039596298,-0.15237893726865293,0.6968872646793853,-0.024093440280271303,0.018688465712682158,-0.006952912746880237
6.531221191406251,-0.0696580139582401,-0.02233024690877775,0.28739525645565894,0.012880338861848242,0.005939999709091355,-0.015165510685200457
6.551221191406251,0.12520737537429777,-0.19123303996024069,0.3423382162561378,-0.06726094337067272,0.0649855829021322,-0.00985976418539417
6.571221191406251,0.0686902524475328,0.25865253367742863,0.5190260428803789,0.021477041683124202,-0.030644381360029026,-0.08224369002157121
6.591221191406251,-0.23501201575662026,0.30651439375565553,0.7246996245150332,-0.051909842851144576,-0.018542329353373087,0.015276698157755033
6.611221191406251,-0.5182093964570632,0.15905261809310842,0.4165602100359151,0.016804238364832334,0.050859900065487816,-0.038848124443936975
6.631221191406251,0.1316315998167287,0.2071514690737256,0.7974703345490909,-0.06161738030747567,-0.01454210268141271,-0.05707490518346896
6.651221191406251,0.04963675006104471,0.5602023026438122,0.31623758581792066,0.023934863385009823,0.013234753786836568,-0.006910949110706854
6.671221191406251,0.042850042932451336,0.26401807948643585,0.6975337009871861,-0.04705422782088329,0.03108825305367953,0.013300871792576172
6.691221191406251,-0.5022491862793875,0.08501831934520622,0.6950877282708137,-0.009852761246625713,0.04349618750747315,-0.07815640415602323
6.711221191406251,-0.25234696473797663,0.3034830115482974,0.8375621065369743,-0.04759591489198186,-0.02374957532772318,-0.02830191794064565
6.731221191406251,0.5153494736180908,0.21261497841188376,-0.0348984490326088,0.004948871366863986,0.06466026955330462,0.02265268922330505
6.751221191406251,-0.11209092124135119,-0.11417804901762964,0.20145996267990235,-0.058232094681892714,0.03852946454768436,-0.10461315356165556
6.7712211914062514,0.20844289227110183,0.2461305712097015,0.6362086987441543,-0.017965281182602436,-0.011034509318111821,-0.02161833199563482
6.791221191406251,0.2558105125106263,0.17718222582920878,0.3210983096508992,0.014730148636955449,0.010795213343159579,0.05477395469961128
6.8112211914062515,0.1808929169343351,-0.3874038790731179,0.37653637428948655,-0.05473549464797004,0.04139557738706428,-0.06519330459330068
6.831221191406251,-0.12664356174424743,-3.8736340113172926e-05,0.531056437670945,-0.014293543905023413,0.029819523587106395,-0.08225888843527727
6.8512211914062515,0.31098005436995463,0.2232861011105015,0.489834134413198,-0.013675278920719762,-0.010340692374609693,0.07488056839527567
6.871221191406251,0.09941952437871146,-0.3202390921283727,0.40882558649838896,-0.033649316228076584,0.08710645334202752,-0.04714734500618246
6.891221191406252,0.11359451254535789,-0.06133323390928842,0.7512548009279588,-0.046620217331398026,-0.05644398506876473,-0.13957923018857676
6.911221191406251,-0.08247505381430523,0.3471205848335125,0.4425376241460928,-0.017257337196664748,0.055322803076908414,0.0887622525860403
6.931221191406252,0.09798527116591065,-0.044952948652013776,0.5907728930494853,-0.0027211000796249283,-0.026256598450896864,0.007886724931052757
6.951221191406251,0.1760224209548701,-0.21258582905856702,0.21610357533299498,-0.06606944879779396,0.07298971020691895,-0.09910728487504483
6.971221191406252,0.4471264917724745,0.48611211398429954,0.5056769273063763,-0.015136495467670286,-0.025215999726696404,-0.03932532186637076
6.991221191406251,0.6021660570041625,0.34574765198956664,0.33723466576494016,-0.008702725814734935,0.027891386257940236,0.09232147397233308
7.011221191406252,0.37208010088382043,0.03273104895817866,0.23118605448316606,-0.01876066810114552,-0.0002514811198663409,-0.06707745627494355
7.031221191406251,-0.4102033999919402,0.04888444149503103,0.7534881615244104,-0.06420980300584156,0.024645759292665898,-0.0837941521199335
7.051221191406252,-0.27753585891777816,0.7943899626441596,0.3429126784659574,0.03622017393395407,0.0055082782112877106,0.047524409635554085
7.071221191406251,-0.24060865643912688,0.031015377653413966,0.3997882795519098,-0.042818584215633164,0.03646251576200225,0.05467284561687495
7.091221191406252,0.019431041480447886,-0.017831271994293796,0.2296259777389411,-0.0011548188046988366,0.046414518078731634,-0.1263578738108594
7.111221191406251,0.16826641897428327,0.21543634478941645,0.8198957560371352,-0.061024155791422986,0.008659777528152094,-0.00802320220850805
7.131221191406252,-0.004750925884520641,0.40270909370636016,0.18342703554166828,0.052984886857828234,0.04083553016537434,0.050285582338385315
7.151221191406251,0.1016194771512051,-0.28040731100293603,0.709212993978326,-0.07950949320940914,-0.00213459365647432,-0.030357212761895413
7.171221191406252,-0.355668750856555,0.13403043353400276,0.39388322042155044,0.020355690088679695,0.05632775567458577,-0.09944271917602006
7.191221191406251,-0.2121901825702554,0.2829996582083187,0.780203655076856,-0.04451720862837161,-0.04324882837483942,0.06331053064818841
7.211221191406251,-0.1834441428303536,-0.061553196762898714,0.2416657958346645,0.023106815074097092,0.0459616892971976,0.006161727417462
7.231221191406251,0.24610703541117407,-0.2180580088385067,0.6657944596557879,-0.07830135547673954,0.0450062501895231,-0.11656884191569616
7.251221191406251,0.20684484804638992,0.43527444875441124,0.056195903559642726,0.019880901725896696,0.01808588614019725,-0.021213216506155423
7.2712211914062514,0.13968077035528412,0.1626167796095161,0.7020407941412803,-0.037518624606605544,-0.017240306311637414,0.07024682553499038
7.291221191406251,0.5420909696481893,-0.07320414478820844,0.1826632218414812,0.01305872885587474,0.046176614900896494,-0.05242130186466444
7.3112211914062515,0.24504320307573169,-0.05591788259629984,0.5649722256006026,-0.06544815758352024,0.01697798828321642,-0.051956439884974316
7.331221191406251,0.451127160121736,0.30521015839720667,0.4973350325412576,0.030773687652121996,-0.031221721221475058,0.037777165210118285
7.3512211914062515,0.5584099566765199,0.19140908370948898,0.44178333684768617,-0.032026081671086615,0.013242688525378472,0.03831297010821633
7.371221191406251,0.5056800109399379,0.09647443789808592,0.35780790989982575,-0.018257307141970304,0.04703049255094408,-0.053137923302002434
7.391221191406252,-0.5660374417198651,0.22395882638341913,0.7616024094887517,-0.023574251591647277,-0.052927035174565984,-0.048484200173453354
7.411221191406251,-0.3116598497175956,0.5853929634732156,0.05727869511821372,0.011065175063466033,0.05737349365476322,0.08688870585785025
7.431221191406252,-0.4758768862874077,-0.10254010509884645,0.7661156962761785,-0.02574670666779469,-0.030557445973315164,-0.03375801276908985
7.451221191406251,-0.4284974939417183,0.16996937314473856,0.6501054532477251,-0.0333851596230413,0.03519545294418511,-0.1323177067026887
7.471221191406252,-0.03609544016585735,0.5794456151268317,0.7033160352743641,-0.024123018773436703,0.0018237023182970896,0.02079523534623511
7.491221191406251,-0.5945042199612287,-0.01585096441270971,0.19234189373685473,0.03650006613594087,-0.04604078380938562,0.06080269790035614
7.511221191406252,-0.19962124184280364,-0.9734308830406428,-0.127951207026139,-0.05749032646563214,0.053981283341233796,-0.047282692984970905
7.531221191406251,0.8679121577089186,-0.2979710141688522,0.19566573127747322,-0.013609686732259605,0.012510364929362626,-0.12349140293113911
7.551221191406252,0.7684735507018554,0.44993367697245645,0.6329144777012683,-0.021948204531571,0.015969895699578525,0.01360414176233262
7.571221191406251,0.5450569907151687,0.33628223914389654,0.6660276762408696,0.013907387745821023,-0.011540164438533585,0.07577946397251478
7.591221191406252,0.250234233291232,-0.08088721680430874,0.7293522460327998,-0.03709390308864758,0.008090851830607454,-0.055198933729563325
7.611221191406251,0.898077575258379,0.4409752573702355,0.5460287289352389,-0.03453260427293277,0.0515411557208896,0.009162454374452648
7.631221191406252,0.5725266638398259,0.5043954589333164,1.1344344492056675,-0.009113530513603505,-0.04101583994485592,0.08189630750117352
7.651221191406251,0.47643844685566855,0.0464238922460896,0.17532625126236256,-0.0030233332742069094,0.008865255859391283,0.05672837883192847
7.671221191406252,0.23933836232592587,-0.3811298310707426,0.21544408779921906,-0.06130026504185136,0.020327964377650994,-0.005229241192706307
7.691221191406251,0.3957066504989209,0.24478217362022997,0.4128596945192796,-0.0062926154634113975,-0.0049393566255661065,0.008068857480826115
7.711221191406252,0.21016585517895223,0.30840813620462165,0.40247928005208633,-0.022702091958618588,0.002011821245970608,0.09875607136510668
7.731221191406251,0.10323445456953635,-0.33673294496072625,-0.3664281756187581,0.013779879288572066,-0.004300878128991534,0.04826637070565951
7.751221191406252,-1.0022064433607059,-0.7639724099578036,0.13375889031739824,-0.049664802036482276,-0.0035266834984706624,-0.06397574906986056
7.7712211914062514,-0.01449101616082975,0.08874041533734037,0.04224222048816445,0.0214720300814756,0.030369286919689254,0.046506037073003985
7.791221191406252,-0.5273447902666252,-0.22465040467865655,0.37995713812466575,0.028537251535330262,-0.05814754416161732,0.07924347253961381
7.8112211914062515,-0.42065017791646603,-0.6274195124647135,-0.7691337967980116,0.01986824209511377,0.05984101758072793,-0.04397099742504629
7.831221191406252,-1.4351407180247384,-0.6071877319921523,0.18238029034522485,-0.02729178547887771,0.016555664930204172,-0.1335332819695274
7.8512211914062515,-0.1296480274415259,0.10822439989872222,0.5885745625529554,0.04585373029630413,0.08460963837563837,0.09452627332411126
7.871221191406251,0.5122312322363873,-0.19701161265182168,1.1143878734996617,0.04441886007743392,-0.10229629194208138,0.049706784738233874
7.891221191406252,1.143527026076706,-0.4197342364858286,-0.6690401199048464,0.007779136620805124,0.050547192242723436,-0.08229668676939206
7.911221191406251,-0.260922083635349,-0.3801963024503307,0.5779513817169386,-0.029211106837031407,0.012070025150294374,-0.058093234105434655
7.931221191406252,-0.2693864673787821,0.5779750953352848,0.3674375027195889,0.09584487619019828,0.023296103131992978,0.06565795715406574
7.951221191406251,0.7028168752599699,0.5232679554479495,0.49447383499086345,-0.009674367728927128,-0.02716679096811787,0.07904432223749563
7.971221191406252,0.6118837801948539,-0.08791016254183591,0.022107114610902062,0.07761857124261576,-0.03142398463723723,-0.026714076550540332
7.991221191406251,-0.6879182819621569,0.002207004689425496,0.3964978127990125,-0.018646865440930915,0.057034057636796906,-0.03983493397672686
8.011221191406252,-0.8637927959882512,0.6314370519435223,1.1501419944156277,0.022070748168652246,0.07443373255468567,-0.024454248054937813
8.031221191406251,0.814728393334326,1.315335502220473,1.3278916099546751,0.03859005527967921,-0.09054373383364417,0.08992063810240751
8.05122119140625,1.2742658510994709,0.20048196424553266,0.24158807951304864,0.018193843892710906,0.04868341667960701,0.10017489532874338
8.071221191406252,-0.2564628523820252,-0.7697771299779261,0.969735225575331,-0.032703708257000925,-0.03572338779352671,-0.11640141151789564
8.091221191406252,-0.31434525360603294,0.5532356823140355,1.213071785710689,-0.026438499904249985,0.01891733818289517,-0.017291102123715808
8.111221191406251,1.0176757206093345,1.2215221483949197,0.8103358151318001,0.005220873105824494,0.05369000243532577,0.19857992477570352
8.13122119140625,1.0487523009034256,-0.301247033321975,1.1076389065992611,-0.03739097182210989,-0.07410472778528428,0.0773883074876215
8.151221191406252,-0.0967091868067443,-0.5143443088925314,0.31184586072293397,-0.06307512238696578,0.04777526335147935,-0.11422158393976302
8.171221191406252,0.23349188168685767,0.24199240101463843,1.0678198254871203,-0.09638567728037094,-0.07090112310334792,0.061082691114063205
8.191221191406251,0.5608285265810731,0.5973190673946651,0.08142079092490122,0.02904356457726008,0.033635624061189515,0.20076718685008987
8.211221191406251,0.17193891026064015,-0.6049665353373449,0.5599504476519732,-0.11995971220949614,-0.05484269579852348,0.00681537905518483
8.231221191406252,0.2808794864730775,0.03932706355892786,-0.20409846477554022,-0.04367797035059507,0.06846233572889487,-0.04335522956602738
8.251221191406252,-0.32142683641013936,0.26532304996546074,1.0323408408176222,-0.0751038033295728,-0.13841817270948126,0.127926312332674
8.271221191406251,-0.369248432546147,0.05739446207370227,-0.7869043742989227,0.015830788531638468,0.07522696961062797,0.09667627829215285
8.291221191406251,-0.15820598257008636,-0.5668195566727868,0.2532998618593786,-0.13629251079086818,-0.0038379178281474713,-0.01941147348955473
8.311221191406252,-0.5960672819842461,-0.13001037373603427,-0.1901023309793661,0.03295114710736041,0.005563657633463046,-0.0206739616120014
8.331221191406252,-1.9974221340517442,-0.0843480187609544,0.4427358430071681,-0.0925469801111748,-0.10838413261000437,-0.024128660071392964
8.351221191406252,-1.4155149456165883,0.6034575791897869,-1.178561357217508,0.05379231988140554,0.18040371419158763,0.04733945435588772
8.371221191406251,1.2447422976398292,0.26178933044797986,0.2020277348570577,-0.07061824351290405,0.013993774629472374,0.09827343674758957
8.391221191406252,-0.26064451695840635,-0.371761781972474,0.18145639864495453,0.07539315500608426,-0.0708343260260399,-0.15397694327711198
8.411221191406252,-0.9065106489340816,0.10810322306473234,-0.21961917608490855,-0.08134936746983196,0.05356919119860537,-0.05071962750302148
8.431221191406252,-0.4660058534773235,0.6911495503142249,-0.09118377745616825,0.09773529893518253,0.025217674199970723,0.11533052496096634
8.451221191406251,0.2479421381757391,-0.04846960079195253,0.2665551511490627,-0.0036861557543314207,0.0514550904497279,0.01706168176465212
8.47122119140625,-0.3157436686741333,-0.33806625390912853,0.23064381717851393,0.012912075383574948,-0.0012816510347956095,-0.17230862278793085
8.491221191406252,0.1348575478272833,0.5590959239826134,0.12066841216720835,0.021894103014888942,0.053224175017981726,0.048019873626490454
8.511221191406252,0.38621150208523153,0.46118085097222017,0.27644640718204383,0.0643119482621643,-0.007627491893576075,0.0991486083110925
8.531221191406251,0.07071146619479164,-0.4754700858992395,0.38899302560230503,-0.01546698039011737,0.06749461466251995,-0.1197411897070045
8.55122119140625,0.11911336397927823,0.12342138471910855,0.42100535646023357,0.002151730802878112,0.01703574219587881,-0.10426324320187817
8.571221191406252,0.2167901558629449,0.3482193083982838,0.4340885610937671,0.04347104444696405,-0.008219227732864712,0.13334917793483336
8.591221191406252,0.7104094136007777,-0.19095183493380052,0.2347299632306589,0.016797935203838415,0.03316498148326853,-0.011947467693537665
8.611221191406251,0.1760271994429233,-0.5555250338945613,0.5759447708341459,-0.05150796748594162,0.05966343920547281,-0.15584637020580563
8.63122119140625,0.26319703967410785,0.5092861966654679,0.5535025590529072,0.02095538899109841,-0.01710169154080785,0.009505726604097941
8.651221191406252,-0.06624207328354015,0.15344132825937407,0.543918172178611,0.003153424278979253,-0.03009513904120929,0.11019381711075237
8.671221191406252,-0.009060125082998895,-0.5400943485045148,0.17518318523095683,-0.012085685354474757,0.05614518096746803,-0.058382136035232096
8.691221191406251,0.36303151941780554,-0.37704156916228443,0.5179095184195307,-0.04545785454459034,-0.05586592803973878,-0.08107033798927847
8.711221191406251,0.5469525546996827,0.33999998058561437,-0.09900366330517214,0.027007008421577418,0.06577918819542258,0.09411033106067705
8.731221191406252,0.2654451420824997,-0.43671798502603704,0.29455823764401773,-0.025679489984504714,-0.05472509407020144,0.005589145359861049
8.751221191406252,0.033089264596049585,-0.3089362651588779,-0.08614199403848337,-0.011260752434982124,0.062586349006602,-0.07063225361034377
8.771221191406251,0.11663255674526879,0.2509765293887332,0.15570366402284702,-0.011934665813023297,-0.014555760880719781,0.02488648173892469
8.791221191406251,0.0800748372742639,0.03626458097279634,0.18738948617084755,0.010527297229849714,0.01682326981928024,0.05068701467603742
8.811221191406252,0.23576302381874242,-0.10312226548453503,0.3350429456552653,-0.018165749844679915,0.01844297812998161,-0.03395449768802413
8.831221191406252,0.7318503486653081,0.3002258143620193,-0.0010982031560205798,0.0066909055130856855,-0.002202961429214696,0.02521784390306589
8.851221191406252,0.7281166631894131,0.20036402311968174,-0.07086143966454712,0.008003829377152173,-0.005771770041446726,0.07880106381971934
8.871221191406251,-0.5300492182416743,-0.08083175037538741,0.1610536644521569,0.0022609037207213336,0.025826301633937,-0.042655100648291866
8.891221191406252,-0.2759621010240252,-0.021907689921833663,0.1964284774221966,-0.005454680119755209,-0.016149123657323586,0.025842225896057548
8.911221191406252,0.48419857883219447,-0.07990573134924073,0.033381477926593565,0.042285205329100975,-0.043128919543269265,0.10759791774809255
8.931221191406252,-0.5953218918779232,-0.6785250228298593,0.033575537367850135,-0.020091453667667333,0.06340476997510548,-0.09815483866445567
8.951221191406251,0.07340452748704973,0.23883609363502406,-0.04417633707308936,-0.014223008965318078,0.04081089702005351,-0.056498069675883146
8.971221191406253,0.2763461748279237,0.5585652431715449,0.30157461703171395,0.048309494827236565,-0.03452975658718904,0.14207190342404669
8.991221191406252,-0.1268913664099943,-0.35952807337189774,0.1566818422038006,0.006982806821137516,-0.002583367155137454,-0.013776733538810213
9.011221191406252,-0.6222934882936463,-0.2631897339475602,0.19490328755901304,-0.03642092592906337,0.08001931409399561,-0.11595074468939694
9.031221191406251,-0.23457380976401188,0.43672884834731707,0.34038920579985965,0.044862143520548285,-0.04772312806186531,0.08655524799873107
9.051221191406253,-0.23511330080792522,-0.2565978270196978,0.13606666621101335,0.016704080493682705,0.03882915491389658,0.10955724737968563
9.071221191406252,-0.06948016730459552,-0.7604284026354795,-0.026700478256485933,-0.006142827323363648,0.0002672244309880936,-0.14441817673575721
9.091221191406252,0.2477942550098546,0.03863801651048081,0.07875124010140436,-0.02783438126057145,0.04571869570029433,-0.03881444863160953
9.111221191406251,0.6188639653694712,0.4808248357658107,0.0639181283440925,0.06455315106924651,-0.02218542742089707,0.10406702051665649
9.13122119140625,-0.008069873698659453,-0.21779614798979882,0.11576062384451022,-0.01835293346421196,0.03208158709876848,-0.009611849175337006
9.151221191406252,0.3235439689900952,0.03272646448371101,-0.03768050644786367,0.010778209865194777,0.07135583047518475,-0.03856435223142161
9.171221191406252,0.20476878689057393,0.12156005961268689,0.3135396215866343,0.028228485979114204,-0.029987323905905992,0.09267297851313497
9.191221191406251,-0.5274351566908767,-0.18885940156252082,-0.13626581491009507,0.021202995762743915,0.05271812142859319,-0.020208121153711078
9.211221191406251,0.13892932753514844,0.054681673308262686,0.3614757854614012,-0.024401452507438717,0.0300889210106665,0.010685687187534557
9.231221191406252,-0.2536003086722476,-0.01659904199629389,0.46105563343929545,0.056877494976353554,-0.024364181968044164,0.01733632541102562
9.251221191406252,-0.3047146877991817,-0.501709817529642,0.152923431567144,-0.035885861554545435,0.0021588782504707157,-0.02518698133419329
9.271221191406251,0.3580599269014752,-0.14533162549589235,-0.05295831491479203,0.01584352383503776,0.03717276540683969,-0.03483068926303185
9.291221191406251,0.016092781040268993,0.006942964018245634,0.2305899470493871,0.006765986507175777,-0.02888235083431932,0.004371574651144832
9.311221191406252,-0.30305744432250614,0.1302914534894663,-0.07401941821834401,0.003071038440733358,0.06369899096209831,-0.007927958854768656
9.331221191406252,-0.16454888010164817,0.334439269025373,0.3689397810053926,-0.000984347344553449,-0.024534739732386682,-0.03170422160317094
9.351221191406252,-0.2620600056066088,0.2779006141344299,0.33799817281571815,0.004027559448042987,0.030779726811595753,0.022450089612810312
9.371221191406251,0.174290446145033,0.17149462367432947,0.4110059226977082,0.008459338481321884,-0.04623017649878543,0.011938708707653371
9.391221191406252,-0.25962288987827215,-0.03233121280321791,0.2253564165400034,-0.02729107659134522,0.04560058000565202,-0.037345761753247574
9.411221191406252,0.1774725415497666,0.25481592199929126,0.33241334643745185,-0.01934799182349993,-0.031068210218624034,-0.04315162198994047
9.431221191406252,0.3277771348222854,0.3267652504569054,-0.09015861162098064,-0.0011904379663255377,0.006579875681426705,0.04695567541107632
9.451221191406251,0.013100552188351097,-0.07100408895476736,-0.30942185293499147,-0.015791026127592336,0.04253425317577681,-0.0008456778303913
9.471221191406253,0.22329711792373239,-0.23117969220962617,-0.05395256476956434,-0.021620875365227415,-0.05581163756737394,-0.05055778293020717
9.491221191406252,0.18758622632046276,-0.10442888170284274,-0.36985846828801633,-0.001573134930801389,0.051209088643081,0.016736982380272516
9.511221191406252,0.13218778479904114,-0.12414555041533254,-0.31523291047707935,0.005612412694461496,-0.026619650156283727,0.023279041391920153
9.531221191406251,-0.3602034992377071,-0.49806208213605935,-0.2589679802951591,-0.016792642405377926,0.08843999588199301,-0.0035748747150743045
9.551221191406253,-0.2738747776659934,-0.4039987351846469,-0.014299401495448064,0.01765175280201869,-0.059450438863773394,-0.03116213284042391
9.571221191406252,0.02023723775098358,-0.20131575284830677,-0.49513633275922564,-0.005154535001864831,0.09662491029350007,0.035159758638957
9.591221191406252,0.09209922611296159,-0.07520125519431191,-0.02994767345141186,0.008317308214572224,-0.010528013893843545,-0.04282058011010464
9.611221191406251,0.36659040573952373,-0.07938185955713706,-0.07766895525504151,-0.00878157167354777,0.02240176076041884,-0.018420863928777734
9.631221191406253,0.26269693660666443,0.0018579397978139855,-0.679638242839688,0.04201615421263299,0.004699030196617507,0.019247926982434438
9.651221191406252,-0.28271258859888243,-0.43348504396487025,-0.47651192297572914,-0.02395476552852178,0.05280371724126093,-0.053786731702232735
9.671221191406252,-0.13409769662892926,0.13721564501455877,-0.30253834761442516,0.03595563313262578,0.016628063737141804,-0.047386994246654525
9.691221191406251,0.27380164109817734,0.08424557655070404,0.08208031987291056,0.012390862297149393,-0.010241790534902751,0.06461525430873795
9.711221191406253,-0.2848645270953271,-0.09470816733642619,-0.24361335913561427,0.05122577266379506,0.012414442533339025,-0.038097861876770854
9.731221191406252,-0.5729847199893217,-0.017629833487174357,0.027288256924188414,-0.036523015716749506,0.04206400415594246,-0.08580750390193832
9.751221191406252,-0.6081301964109556,0.43685795432367025,0.11288204219446242,0.05733549654308989,0.01407405391169795,0.003318484051476407
9.771221191406251,0.01813699454587248,0.26975535374008236,0.15873710102150795,0.006054810451462494,-0.0019411089686856124,0.05763399998707187
9.791221191406251,-0.449015046217614,-0.16109782120549074,-0.24664995800491402,0.021165908444118052,0.015382700163206371,-0.09894382992038067
9.811221191406252,-0.46867236471592993,-0.04038831633735384,0.11100240588190503,-0.040884760226975674,0.04142992131291263,-0.046892969175840904
9.831221191406252,-0.2782642165407589,0.10492556220745801,-0.1433351519058429,0.05440212840601354,-0.011600875066388126,0.027678496302729182
9.851221191406252,0.04857229591951968,-0.40079279203597606,-0.4402972557652872,-0.0306895819354837,0.02404696383013965,-0.0035682089569606416
9.871221191406251,-0.49289531483514887,-0.38404435000764914,-0.39683123224059746,-0.012162106238769382,0.1213019721913271,-0.10897290120400555
9.891221191406252,0.5007203700772264,0.3252570922948302,0.05667449830170383,-0.026199992008446898,-0.01948233885385626,-0.016169228281950474
9.911221191406252,0.7279689646789139,0.4726155730917422,-0.38481525911076,0.017810700234116596,-0.06759910121925937,-0.004222698918585898
9.931221191406252,0.7599804124222621,0.04865000754733921,-0.11840547934870133,-0.07364385555902514,0.09845301151636444,-0.032764450950697854
9.951221191406251,0.11509265382596526,0.1201472226442314,0.027036991358974072,0.01435974976686408,-0.09068062823448168,-0.06064490149202822
9.971221191406253,-0.06048149363528862,0.23070890887169154,-0.41815698578361754,-0.047897089805771696,0.011934694582630554,0.0605409151326264
9.991221191406252,0.4239131470464527,0.3865115725623476,-0.4851339612858533,-0.004166575715277373,0.011466868109592455,-0.003954070696523964
10.011221191406252,0.6163180735730056,0.23152336802138895,-0.09561645543879609,-0.05583072952070951,-0.028929229587355627,-0.036671809586589346
10.031221191406251,-0.07006160283462944,0.5993338950702196,-0.784228927286888,0.006241526432682585,0.01898862371814072,0.01492248784415114
10.051221191406253,-0.010637796111136954,0.3771871139223249,-0.517948589090026,-0.0406583539226282,0.004119691443285778,0.06989254449129671
10.071221191406252,0.40142034618433986,0.29935770663991884,-0.761344575024958,0.005064338790121926,-0.04311401542858087,-0.0650372957405199
10.091221191406252,0.14795087447081615,0.4952273468140982,-0.46901997312837473,-0.06514044646196306,0.04509350965080041,0.011587942993381227
10.111221191406251,0.03972263571815375,0.5886401822667869,-0.6868695386375554,0.031909654471644615,0.029242816929633063,0.04842701601980095
10.131221191406253,0.28387653593737316,0.08898263546329929,-0.5329814926596101,-0.0640271556943075,0.03416305218853253,0.013099714471067647
10.151221191406252,-0.36086817999298487,0.17825397286075068,-0.657183504211979,-0.010342332088367816,0.06594332567298983,-0.058426788327291916
10.171221191406252,-0.267110005179694,0.38025143828481867,-0.3450243345968944,-0.043083437660064644,-0.047442451991443126,0.010968748864353686
10.191221191406251,0.16905723840479492,0.20596109867696857,-0.800663271760797,0.004399714656267584,-0.024693558523080923,0.03784204351761179
10.211221191406253,0.7001978035114739,-0.04168050273104058,-0.8866153077068769,-0.04319770095711757,-4.873086395296703e-05,-0.01973501557334371
10.231221191406252,0.42429350586295045,0.12635074931117718,-1.0149795829501886,-0.009400998430756334,0.015467597626026067,0.011832333011584747
10.251221191406252,0.5058234058518744,0.4062374503186946,-0.6424731854675687,-0.007368051467908789,-0.01460144018715143,0.09374777246649182
10.271221191406251,-0.18211011937055352,0.22960030190932312,-0.5264873175819248,-0.005236985991431621,-0.01665292126419356,-0.014090863577117226
10.291221191406253,-0.19812324389598457,0.4812116576339657,-0.8237004918324177,-0.01347428553493409,-0.021537561106426545,0.030404685776663547
10.311221191406252,0.11293240093786781,0.333904295464792,-0.8236550951498479,-0.002142906894164411,0.011091057287911177,0.06618674726958412
10.331221191406252,-0.250737390713369,0.06276504669057811,-0.6073569888948127,-0.012434723421374092,-0.015953313388521122,-0.009319724693377178
10.351221191406252,0.5871230184832444,0.11089956295854947,-0.9787507155409103,-0.024234740686933546,0.02253121115551571,0.010472785195468437
10.371221191406253,0.3849200798325124,-0.05646338774917551,-0.712462534927536,0.0057169356091791,-0.046939396975800546,0.05125973786079339
10.391221191406252,-0.23095015253908147,-0.11443962474099265,-0.9255093153421484,-0.004030770957578314,0.007014259462953893,0.0222325307965113
10.411221191406252,0.0849604673473931,0.07954730244518023,-0.7658431815174257,-0.012982420294491655,0.003210166525478019,0.04934644846619373
10.431221191406252,-0.5072232432006735,0.06614454020718877,-0.6576428459377502,0.0033488229998717557,0.02098477161773226,-0.007915311707109511
10.451221191406251,0.07929867463542661,0.1202590423123475,-0.8790837739903588,-0.012552061887943661,-0.0011091166074917518,0.046220350387642654
10.471221191406253,-0.1595216959435239,-0.2996281819542723,-1.0644181580985244,0.006316514506800324,0.02284447056087362,0.01519225318213437
10.491221191406252,-0.470423486643015,-0.34014171161818607,-0.8059521079112636,-0.015249862552123529,-0.058150536374184214,-0.043619967260344214
10.511221191406252,-0.19285063928244847,0.02065777116599091,-1.0769709063958293,0.011716695813438817,0.05624726117033622,0.042761888331051455
10.531221191406251,-0.27418273233099566,-0.013471130142642222,-0.6956521182790238,0.013898276306672067,-0.041755216690471525,0.03119617526339202
10.551221191406253,-0.4066446086990005,-0.11581206819200654,-0.8864128201649673,-0.013201410054836936,0.07669624420632928,-0.043977772126964645
10.571221191406252,-0.1606342235765797,0.3042323812444806,-0.8207289634209307,0.002337152103848624,-0.031124961948874666,-0.05078449891248003
10.591221191406252,0.5234342101255698,0.4377622592777792,-1.0161398812643605,0.012669415925787447,0.026360226787176706,0.08721476403763213
10.611221191406251,0.26373349227865744,0.09281298886089501,-1.006667025544046,0.0225016193962362,-0.003928654438110948,-0.0072274038440890585
10.631221191406253,-0.15399713669829762,0.03699091822933353,-0.8977162868253934,-0.03316009546249543,0.022962247958262034,-0.06257277301436502
10.651221191406252,-0.4353612135667038,0.5939386221521213,-0.9164830328369514,0.03147483323933066,0.04485283434142161,0.06278311145894439
10.671221191406252,-0.5995005570328775,0.0671013884112359,-0.442025583829342,-0.004251700180649337,-0.04557439453561911,0.03406447734241674
10.691221191406251,-0.5723563265419793,0.14907659684337327,-0.8469729769114525,-0.0053618550547697465,0.08000693151432413,-0.07922640860158865
10.711221191406253,0.3213902761450023,0.4492124456811739,-0.537501043532996,-0.019081564718449694,-0.027153646679631282,0.04423779520914197
10.731221191406252,-0.17797785202855015,0.07290399516545676,-1.0167674574082048,0.049105329079799226,-0.026388975916707372,0.036858194024157256
10.751221191406252,-0.36952305814650277,-0.42453734583186237,-1.1198489504313704,-0.0574039222579517,0.0475339173078068,-0.05842870366884388
10.771221191406251,0.03985525076541142,-0.015789062786970936,-0.8879146930362188,0.009773049461373898,0.03197389214191388,-0.04665555591285427
10.791221191406253,-0.0767013070341355,0.3354493302945631,-0.6417618750789339,-0.003548834415401649,-0.036138872478424865,0.029500787802073627
10.811221191406252,0.12206681039663159,0.2182869655193835,-0.8097926261720043,-0.010145658605712652,0.033207439103954746,0.022126776291918854
10.831221191406252,0.06514714851493711,0.0736421553408183,-0.6337326016605157,-0.024224304230978082,-0.05219845430634002,-0.07056438937079679
10.851221191406252,-0.8817727886598846,0.32266168727033906,-0.9470526720046242,-0.019797969663986364,0.006720957855720504,-0.008924235311707893
10.871221191406253,-0.6476903119359553,0.23403977468872372,-1.3759561780156295,0.001479309947538432,0.02517248726799665,0.060864402242071215
10.891221191406252,0.19917616356587245,-0.10840251982107799,-1.1801896174016375,-0.0295787423633325,-0.007570090348662236,-0.022744340375323736
10.911221191406252,0.42116306534708414,0.051208625982253786,-1.5023369232783335,-0.005269747467374317,0.045503953332803375,-0.05207013162872694
10.931221191406252,-0.10138499073857553,0.18972221566582248,-1.0740435219166264,-0.01172622254082176,-0.07731590575576874,0.011012150584236519
10.951221191406253,-0.46805958965912353,0.10680927436873063,-1.3420487010125972,0.027978444040013553,0.020669922904620025,0.04305902810018748
10.971221191406253,-0.30691529275250456,-0.1664422615385614,-0.9917446986175907,-0.018688023767119158,-0.014382409371245627,-0.008795771356210104
10.991221191406252,-0.43495219398483465,-5.0101896648153383e-05,-1.2280070003346801,0.028811620745291085,-0.02074765330631676,-0.043447930974906054
11.011221191406252,-0.305547461489434,0.142021734406699,-1.3862362437606073,-0.01767531661729673,0.044088956828439045,-0.013779537630203892
11.031221191406253,0.4285423270452932,0.2960927682463085,-1.2690423224696463,0.02920948401022346,-0.0016445549841422398,0.016916393976349167
11.051221191406253,0.11647088990728689,-0.09359470240096456,-0.9656288950121774,0.003930223194218392,-0.0103053247694013,0.006023086090185853
11.071221191406252,-0.666087299740117,-0.1879175034305773,-1.0870264063323458,0.013462934843289389,-0.03827161204770211,-0.058837346501797394
11.091221191406252,-0.7250251231811146,0.08087906816314015,-1.1109027388979318,-0.0027180923161734785,-0.012322262625496906,-0.023889913386770486
11.111221191406251,0.06744682325086618,0.3402697159784664,-1.25900855085434,0.029265315678998996,0.02255261259040678,0.06080522965301404
11.131221191406253,0.4181527540564021,0.1374616155423626,-1.082449516838871,0.003551069553674841,-0.051042503789306415,-0.04984194759594776
11.151221191406252,-0.24736261614326838,0.5102801346703746,-1.1304032453841333,-0.005289917737377241,0.04082733280927167,-0.037830235348854976
11.171221191406252,-0.6611488539060653,0.5720190565509939,-0.7791063805973865,0.03421978888035924,-0.055358186961245504,0.07820166924001351
11.191221191406251,-0.9189589821728247,0.032361146060610746,-1.0345340521187434,0.022284081232459386,0.01925540163974601,0.07256387691999945
11.211221191406253,-0.19123732267852206,-0.12775835482560655,-0.764522212880918,-0.04284368101630887,0.0039228237683624325,-0.12483929247367315
11.231221191406252,0.19782325229960368,0.6363940968680459,-0.7446401768651442,-0.0031545485633592213,-0.01663499703368257,-0.004125567648197966
11.251221191406252,-0.46397462894877534,0.46002720367999567,-1.1394689329145655,0.02070947907593237,-0.00494416876463336,0.10962747488101603
11.271221191406251,-1.198348204307615,-0.1949072025031456,-0.8444104348989333,-0.055635535779238174,0.020931271651345347,-0.09115445101517462
11.291221191406253,-0.1889317376256652,0.6077373459654389,-0.8426120224152186,-0.02210345146134226,-0.031264006987997514,-0.07939655393774425
11.311221191406252,0.34196350178620993,0.5721059002094542,-0.9860906606885296,-0.00647921367791116,-0.026585986015170978,0.11709913763835328
11.331221191406252,-0.17078119792852192,0.09265121380387076,-1.1658753361994794,-0.021686270645386006,-0.024581753321541767,-0.05452864451118279
11.351221191406252,-0.27597690928693436,0.3194065606809521,-1.0258999026575533,-0.0718107669047404,-0.020998354066564525,-0.09623016920219546
11.371221191406253,-0.42173696421395596,0.9304320049717937,-1.0475937473880368,0.011753588864979157,-0.022422683307022954,0.09093832029290062
11.391221191406252,-0.5642625061938705,0.17649577651880574,-0.8540141296208126,-0.039698947597871126,-0.05400724006604806,0.032778200095769004
11.411221191406252,-0.548616237833143,-0.02616953695024269,-1.2143014175690139,-0.0489851888813198,-0.017698430984596475,-0.1198904268065191
11.431221191406252,-0.35466040904184787,0.4659039259591333,-1.191664055497108,-0.03613366811853156,-0.05869669447181923,0.03592086782320495
11.451221191406253,-0.3127809645206055,0.3032253175397488,-1.4533124059666207,0.009050061895411604,-0.0489560531786211,0.095576553067729
11.471221191406253,-0.42324016133438025,-0.09130785085191409,-1.4545825544576225,-0.048513174415758704,-0.04500482827551679,-0.08559166309159412
11.491221191406252,-0.4436719942400121,0.20451726886550184,-1.530111727011823,-0.03688398458234759,0.02901599789860339,-0.019592094647868652
11.511221191406252,-0.34585937892233987,0.22587558000271613,-1.2001023274444238,0.01884632005480562,-0.11137540479984355,0.08168851873557524
11.531221191406253,-0.5356757567434225,-0.10921020668868106,-1.6597012215646822,-0.013194531206083042,-0.04381225383230222,-0.006442914177981166
11.551221191406253,-0.6369983853049473,0.03410619575940663,-1.5846936618220921,-0.022769469435758034,0.006935600579385631,-0.06131529280152891
11.571221191406252,-0.7171569086646099,-0.0003267430752646625,-1.1178942703756438,0.003053507318515331,-0.023663235349298498,0.04408610018608844
11.591221191406252,-0.3532736449727897,0.04794858376365018,-1.3971448714620325,0.02071301188050517,-0.06896970519206946,-0.0027492389045167924
11.611221191406253,-0.07150698940782846,0.06817544656638919,-1.8132794915075496,-0.030754399369763798,0.060361092753285064,-0.03582493253591889
11.631221191406253,-0.1541327818241132,0.3339501626388174,-1.0504307665510202,0.02431692657432897,-0.10933098909613993,-0.019517517226698193
11.651221191406252,-0.5123646135564149,0.4348939673726349,-1.296962964843753,0.01749387791082442,-0.027288151721998086,0.04756939820062361
11.671221191406252,-0.5656842692712954,0.2320242247009219,-1.5077039342685565,0.017849976950409477,-0.0467927543247502,-0.007716371741843353
11.691221191406251,-0.5644469905074246,0.20525322934056472,-1.381928347422517,0.006832959705347575,-0.014834134201155542,0.006445327966793231
11.711221191406253,-0.6395733706232379,0.3876146818519629,-1.3740698704529124,0.03328914396815551,-0.05573251185299001,-0.020142233434968307
11.731221191406252,-0.5424486015475039,0.3476563205798572,-1.3513709919083061,0.0011501412531799426,-0.009567985447246572,0.02837179428397285
11.751221191406252,-0.5763883738776692,0.3137722020715858,-1.2528542691169042,0.031758944074320235,-0.02409194794085782,-0.027097166416415797
11.771221191406251,-0.7628770370628424,0.09334248798344928,-0.9735594822229208,-0.021788733336106977,-0.06045847207457457,-0.044015878895537076
11.791221191406253,-0.5132153981953177,0.5265591754474078,-1.2854422232069604,0.028226255718746984,-0.042182670526670914,0.009327794014116875
11.811221191406252,-0.3906319759925962,0.1704759187597678,-1.1466581870400612,-0.0151461236176467,-0.04804521800491382,0.03664693728056226
11.831221191406252,-0.6339807206959711,0.09435670220453378,-1.5194528577592223,0.008297587719691194,-0.04000049742355704,-0.056161618321110475
11.851221191406252,-0.6453839698019481,0.21962944836615686,-0.8375034339516433,-0.06279439773651643,-0.0823510845624833,-0.03661198555937147
11.871221191406253,-0.7207781781384556,0.8423813733961396,-1.407052147882702,0.02427485833713654,-0.026367897236796826,-0.005117486204385821
11.891221191406252,-0.7482962094255478,0.38993811672209727,-1.0786268042417995,-0.07342494450780032,-0.04615251802443424,0.05169756110713355
11.911221191406252,-1.0850549644285874,0.22820903954613467,-1.586484740632104,0.002432367428126153,-0.028635682731180414,-0.0850438147595109
11.931221191406252,-0.5999191233554775,0.5284980348644714,-1.2510076783397437,-0.09740289479553725,-0.09986306588778003,-0.02670252558927347
11.951221191406253,-0.6728042112680709,0.839246545072565,-1.8531997848049164,0.021539605432926608,-0.010207484041271846,0.027405929047453606
11.971221191406253,-0.4598106908262602,0.26117577219025817,-1.5361917166611516,-0.08334462488339775,-0.10522348586683514,0.00039386368786335904
11.991221191406252,-0.7116286359490029,0.35502459452459134,-2.133061901731268,-0.023940835493038052,0.014145295444646254,-0.06466235451760223
12.011221191406252,-0.2880868649242456,0.2872271745824699,-1.5127112004343095,-0.0699524584658299,-0.10546963938093876,0.013684359999026877
12.031221191406253,-1.197855110468144,0.34009688827312307,-2.1851622984055457,-0.006147817712122281,0.018774061422943016,-0.023965664845952653
12.051221191406253,-0.35669043832298425,0.4461084903003486,-1.6088788061036177,-0.09636195261062488,-0.06163762084881612,-0.0355951804049426
12.071221191406252,-0.4254966880588613,0.47525011304700826,-1.9784431232414483,0.012107587659067331,-0.030656555616143125,0.01630782568492098
12.091221191406252,-0.5993210219615291,0.12623053115903696,-1.9654331420601365,-0.07271915326813384,-0.08166677397422015,-0.035435410562116285
12.111221191406253,0.037470666726743755,0.402835491711615,-2.4443652095766937,-0.023882967967474085,0.014640273759420987,-0.008840127997308489
12.131221191406253,0.02768986433816804,0.3433324650399042,-1.9649134207410361,-0.033486619326301925,-0.0842628153761437,0.0034705860412971917
12.151221191406252,-0.1830861904508487,0.22206535409519987,-2.209389078439822,-0.03004717212803468,-0.019391210354969404,0.0026430112694351636
12.171221191406252,-0.5888788260602057,0.3252063268443914,-2.108146831111469,-0.03149410198411193,-0.042137231755879224,-0.026520210493998324
12.191221191406253,-0.7056019349248485,0.40856561760621674,-2.0527935895175453,-0.024246505446957584,-0.04369160523106876,0.01565833093837689
12.211221191406253,-0.5085259254520981,0.6020090046490413,-2.39312775166526,-0.008695960934502955,-0.01597568979707565,-0.011276808484315637
12.231221191406252,-0.38726663226958996,0.47607450531217477,-2.001402592930495,-0.040058638913371344,-0.06949038496306995,-0.011339615021323437
12.251221191406252,-0.3943665767036496,0.705149674734854,-2.0867517453486526,0.004138107860204966,-0.017196007035963162,-0.014920242446189077
12.271221191406253,-0.39186647466031616,0.6259425121666882,-2.0467286295858345,-0.03163548137483778,-0.05236153010293083,0.0027886146887910346
12.291221191406253,-0.26637381975938773,0.4461286536434765,-2.509040689581056,0.01238646325867567,-0.048288215677316726,0.0029234146243594986
12.311221191406252,-0.2729171725973602,0.33925651970234605,-2.0518451146700807,-0.03838326974185269,-0.033261318468974066,0.0003666724694032288
12.331221191406252,-0.5544613850230117,0.5951509472907782,-2.2428267339956847,0.02213587220328745,-0.07207019839138444,-0.040509731019454
12.351221191406252,-0.5645177911534972,0.5113955967743875,-2.2895758021785766,-0.037667547575541784,-0.007841121727869613,0.045236290353514175
12.371221191406253,-1.1571054968768049,0.015270580887801736,-2.1740776854762993,0.0238352501762357,-0.07527821966939385,-0.029008944222204118
12.391221191406252,-0.5278584910771205,0.20130227525615324,-2.4574834854040177,-0.03725807308102219,-0.01714001946703644,-0.039835425198532316
12.411221191406252,-0.10460500640877818,0.5080849683071582,-2.5755786414901642,0.015621521800614322,-0.05497775031026858,0.013889058142880297
12.431221191406252,-0.38614222193236986,0.21531665227040003,-2.1923760032022437,-0.005105702755192137,-0.05579062745768738,0.035347852368727416
12.451221191406253,-0.21850436354634759,0.05530958510903687,-2.4916399657637514,-0.004777091049439883,-0.022420459317462452,-0.040121561799016506
12.471221191406253,0.024155086562318677,0.411458572753242,-2.364752327826833,-0.020887800374471764,-0.03508697410541775,-0.00325487708787505
12.491221191406252,-0.4744943403042963,0.4049767894857255,-2.078286046449348,0.01666800809398999,-0.09108801292853168,0.042686802442267316
12.511221191406252,-0.5794893370154371,0.4483417206683747,-2.4914399844527635,0.004732821683118691,-0.05840748271461715,0.017465781646220525
12.531221191406253,-0.6928651169057078,0.17586443728221401,-2.302160385291208,-0.026532770607622963,-0.08345848589351404,-0.03335168706322445
12.551221191406253,-0.8606340970237071,0.5423206378596279,-2.32291140966373,0.0057522753103038836,0.001281082171221424,-0.004090576650699857
12.571221191406252,-0.1769436052854584,0.5408304999881729,-2.3480767550033175,-0.009844298299611578,-0.07038031704997443,0.03813254875853931
12.591221191406252,-0.3465731610946558,0.2837072736329904,-2.4170094925494516,-0.001259778621203468,-0.04710043924121368,-0.011993486294521806
12.611221191406253,0.028947439672229583,0.5571951996404787,-2.395563764508371,-0.028486296804717072,-0.02783884399015802,-0.022938154905351178
12.631221191406253,-0.3666708751413999,0.8557225281752463,-2.4646692003561905,0.004671983376015549,-0.014443711071853228,0.03599575659079637
12.651221191406252,-0.46046257873229546,0.4117006030793225,-2.1375249724973573,-0.012138183571975181,-0.10597291604494051,0.04549070825425652
12.671221191406252,-0.5965794940450176,0.21830513453046596,-2.4401025637784635,-0.011528450378434573,-0.012978755508249902,-0.021503698921840585
12.691221191406253,-0.41725652454178014,0.3773221606140083,-2.417019592775619,-0.03151956239845509,-0.061428987872608594,-0.009628051444103853
12.711221191406253,-0.9894049239972076,0.4339355685244996,-2.3023689803615364,-0.005866012003429148,-0.03736866226091419,0.022260053802036002
12.731221191406252,-0.7167028981915292,0.48476133209336253,-2.3565328886309658,-0.02200136263618351,-0.02896572481177116,0.007752838625321925
12.751221191406252,-0.8180340237488483,0.24315605689749833,-2.2344513914369055,-0.035794731006183834,-0.06520360951395236,-0.03626530390173809
12.771221191406253,-0.4394837784408901,0.5379583722289916,-2.561332994808342,-0.010612324339628642,-0.019845736516739185,0.007795259859346193
12.791221191406253,-0.5548343029769587,0.2728943283050737,-2.3992497348701907,-0.037862193693548755,-0.03931279569755665,0.020102273262827302
12.811221191406252,-0.09344148445120912,0.3152018319513637,-2.640952914582047,-0.009949361721152518,-0.04242082114656201,-0.023339591341560918
12.831221191406252,-0.47242148235732717,0.20224520438143337,-2.3733677427936515,-0.04908260339087833,-0.04868588218145513,-0.011328333159223762
12.851221191406253,-0.0048157248144211455,0.5168929182824954,-2.781513656319599,0.002751912114656594,-0.005800540639475612,0.028857267166384128
12.871221191406253,0.04798766716617899,0.36155976278596424,-2.5071127158254827,-0.0453784969278072,-0.02282881194309378,0.022040825099748668
12.891221191406252,-0.1297909823885386,0.4270949058420399,-2.6596660832354933,-0.008410704637837557,-0.023353683285901795,-0.02899334819179069
12.911221191406252,0.09767129576247834,0.5378478023958465,-2.406583207959604,-0.04132311493858574,-0.04279587068553308,0.04765268513452717
12.931221191406253,-0.45602566860744537,0.38045154515375057,-2.7402843441589844,0.015720397437658067,-0.022301558662136924,0.025306273708849043
12.951221191406253,-0.32269083458277426,0.15680022071977398,-2.5150214951557315,-0.05611157253645653,-0.031161796633328027,-0.0036463898914604214
12.971221191406253,-0.4668807097329973,0.42007567995616985,-2.8228595588274863,0.014882186661386401,-0.022462699443118565,-0.028742716183707284
12.991221191406252,-0.34573856122677965,0.42913253725358674,-2.502717573205831,-0.04447654369710715,0.0017298350001174927,0.039020801067215755
13.011221191406252,-0.1422122260934466,0.4304320366867391,-2.5973810580814334,0.02367613424030613,-0.04763463574999291,-0.02497582616410455
13.031221191406253,-0.45072860571764256,0.4514319679977165,-2.6149030757156297,-0.04885457618264586,-0.013930275670934638,-0.05443855159764747
13.051221191406253,-0.2136594579452644,0.7023512208563578,-2.770229453674636,0.005228990254840821,0.02403226207604271,0.013982290370162787
13.071221191406252,-0.0914394604446989,0.5830774680187727,-2.353572026173031,-0.012812385166529194,-0.037306033463087585,0.011819755401264028
13.091221191406252,-0.14351171269816257,0.5431203127316413,-2.592291613288841,-0.007294754506912803,-0.02045043236853798,-0.020391556237599064
13.111221191406253,0.07449709931776295,0.6593935065039314,-2.5079049162762983,-0.02059879091371378,-0.016789360083290492,0.009306592209321283
13.131221191406253,-0.29557754417787396,0.4617255316446494,-2.579468931887245,0.008845071138935876,-0.046925469890770385,0.016575571230056624
13.151221191406252,-0.1547805465469135,0.32424293296063494,-2.90747223745647,-0.009824392197240654,-0.013562176101565201,0.02355899472357646
13.171221191406252,-0.5473989385994309,0.1992219712318329,-2.6413885873779255,-0.00644583886499896,-0.02640898776704104,-0.0163137508090732
13.191221191406253,-0.689791433668713,0.4022428864029733,-2.5996970449925234,-0.005807539479568563,0.007511677432979576,-0.021758129558937144
13.211221191406253,-0.3947246656278157,0.5949785851581805,-2.5813427995195055,-0.0045315013679281,-0.008275862080320788,0.017741120134359394
13.231221191406252,-0.12839917625320096,0.45713375278246793,-2.2701424006489157,-0.008553292895023802,-0.014193310075969794,-0.010838572974875482
13.251221191406252,0.18695708623679008,0.6384185055650138,-2.479279135665537,-0.01185504881470812,0.009670409491065606,-0.015679356129794358
13.271221191406253,0.44515561052569413,0.663023335522275,-2.265580125553125,-0.021775582168052365,-0.037551932733418086,0.029822089152215018
13.291221191406253,0.4758568862667788,0.7187208892728403,-2.436417179637931,-0.005217997235736087,0.0068450864023313525,0.0330244483092505
13.311221191406252,0.5875504378671281,0.5626013534850642,-2.4028630224741727,-0.03831016131408312,-0.03432137943234383,0.02699857194872859
13.331221191406252,0.26225283740978517,0.6389057192231234,-2.42446287851953,-0.014997763154791267,-0.022356151093914516,0.03659798052757941
13.351221191406253,0.2162275606442901,0.6506334834376298,-2.638961041393454,-0.017748757725702134,-0.03635342197322663,0.06729406448126378
13.371221191406253,-0.29311306718490765,0.27951640596392713,-2.6107247078532048,-0.03317333497225811,0.0036150060360940384,0.042362765837107484
13.391221191406252,-0.48488737608029264,0.34955092814370703,-2.4743411930791552,-0.02221241119185092,-0.048391233586703844,-0.01276672260950721
13.411221191406252,-0.695520689199209,0.45513399172719954,-2.703059036091816,-0.0323196225467969,0.019126660586592157,0.04747021769847801
13.431221191406253,-0.5701105853553867,0.3152947493520826,-2.4345390734149706,-0.019226210969625394,-0.04659297826436022,0.011526351730151393
13.451221191406253,-0.15477003695337274,0.2718643612067018,-2.837895878150088,-0.02553285502389288,0.00191206989767734,0.0005736148048921526
13.471221191406253,-0.4491618605284902,0.21874479472851696,-2.9619395835981632,-0.03052973095068712,0.014106975082430773,0.0019444246546386234
13.491221191406252,-0.2326291872315211,0.15780644241563418,-2.653425425334976,-0.016111971427358224,-0.032778966817106084,0.028727924726307072
13.511221191406253,-0.036704978772884866,0.22066819706010218,-3.0020990269178855,-0.0004858691913199623,-0.013595143929443419,0.024404760871335557
13.531221191406253,-0.1943436302707603,0.1882791861939631,-2.9198247352216984,-0.027730644059698235,-0.006722407756029935,0.008736971626253545
13.551221191406253,-0.16838239354724616,0.3605864638687347,-2.818743743361203,0.007913065913685092,-0.01051972683578418,0.026971176570145316
13.571221191406252,-0.5255536662802466,0.26108067368300725,-2.656430236466539,-0.010945150556925494,-0.035814544550756645,0.010214834793869679
13.591221191406252,-0.7421578458278741,0.26200946164851996,-2.7119512214832167,-0.002972327015705059,0.018411919873992048,-0.002972452622747875
13.611221191406253,-0.8458195931492526,0.346727078056881,-2.52434337827847,-0.0018676101406255809,-0.011725141506463158,-0.001666230895629679
13.631221191406253,-0.8437907078358964,0.3407842346527875,-2.528846916275673,-0.007655422718002199,0.019353649238927628,-0.004566603064566181
13.651221191406252,-0.4271201128254444,0.3751302944774574,-2.4040828512771806,-0.008602221909040192,-0.012324354992983347,-0.03531725472935383
13.671221191406252,-0.5060165999239796,0.3890244051263472,-2.5688353677104705,-0.0097420909463926,0.0027985714971144678,-0.03344338762650255
13.691221191406253,-0.09408270461844331,0.561354809507847,-2.565278294998255,-0.011508475718354812,0.013906678959169106,0.005669061453203611
13.711221191406253,-0.004478156223499886,0.4766478253945541,-2.565109682337252,4.655840710905149e-06,-0.011256319075443093,-0.01663149782474318
13.731221191406252,0.027367107074436892,0.4782408671917589,-2.7618761281320574,-0.01731019679338054,0.006628269242197739,-0.0333064553353856
13.751221191406252,0.3478964807578888,0.501336610739715,-2.545574584002631,-0.011448217144377281,0.002962219554310495,0.016397008978559634
13.771221191406253,0.2834127597195663,0.6586992945044317,-2.6616337584769894,0.016668008279316308,-0.01662649688712199,0.006864375587063462
13.791221191406253,-0.07836640137107963,0.6146427747925495,-2.6723619693958547,-0.02843756835276532,0.028283874484620417,-0.0024580262047857533
13.811221191406252,0.504302740331855,0.8319198153835566,-2.40200608927187,0.01417262057947944,-0.011147103252416683,0.03542268292244721
13.831221191406252,0.153278857291326,0.7633759186766724,-2.338926014733233,-0.0009767812297511616,-0.03343311589201522,0.012028413799250974
13.851221191406253,0.24863561906136594,0.8076289013344128,-2.381017131519757,-0.012615019115747673,0.020652749504011067,0.03504647799890334
13.871221191406253,0.08157619019435376,0.7545751043160399,-2.131084677361331,0.0008385615144391425,-0.02850617792657919,0.009796207200022205
13.891221191406252,0.049751127564575684,0.5976342328812743,-2.4327225608817273,-0.017969667472637382,-0.01295620953577692,0.01632734696117377
13.911221191406252,-0.3269651842350388,0.5532783339940363,-2.498355827694882,-0.01226337810822489,0.003758404669455248,0.00791781501113879
13.931221191406253,-0.16075986848400267,0.46162266445706923,-2.369902338484896,-0.016369268037766716,-0.013792920579244857,0.025572227433306404
13.951221191406253,-0.043699782590285056,0.4037029100459073,-2.6862975473532105,-0.001965970188703057,-0.012693766087912239,0.013089501101725706
13.971221191406253,-0.3427712784009939,0.1819004301758377,-2.6609599589071276,-0.025038733486562992,-0.0033438265204445627,0.014366133850947612
13.991221191406252,-0.23058143167116327,0.1299305232767374,-2.721689169170533,-0.00012264613118444017,-0.004188082665858801,0.023025084416522203
14.011221191406253,-0.2452840223105386,0.05662443654547832,-2.650480684866124,-0.017546343692632256,-0.016129430235006542,0.010461952448670713
14.031221191406253,-0.2717220428229787,-0.014419698417172387,-2.776062346645076,-0.009199369792071168,0.023232557239584763,0.010197410088081917
14.051221191406253,-0.22085495711597553,0.024474153544575453,-2.6620925200737275,-0.012449414487136757,-0.010345387263741564,0.010720319181809981
14.071221191406252,-0.4159038560091682,-0.08520527713874303,-2.627139831475996,-0.0056158830793710595,0.005187187683785014,0.012674582695389645
14.091221191406254,-0.2395288911802771,0.01902386006057861,-2.76155471193832,-0.010003171249747539,0.02731603204364376,0.00576194674224397
14.111221191406253,-0.49659640661406523,-0.055052912435991225,-2.53270001344876,-0.004055176676878456,-0.031603689839232646,0.003872322016677395
14.131221191406253,-0.5983527021417036,0.12599183115932688,-2.8621368505874383,0.011250965809087401,0.032612541130497184,-0.0029204484392612706
14.151221191406252,-0.5489956390851138,0.1084738921630083,-2.445149166463078,-0.013430407119510514,-0.01610207587662877,-0.021226870760586658
14.171221191406254,-0.4271020833900473,0.2773959460448231,-2.7501949145705087,0.027129759723816742,0.057156646016330026,-0.020648573247574024
14.191221191406253,-0.23669933873103624,0.17719974208835848,-2.108270232664009,-0.01694866064216709,-0.021073387844745585,-0.02464762984451853
14.211221191406253,-0.10779803970374634,0.4274847027604301,-2.4805356580511995,0.03770548488193276,0.040902140203311455,-0.032455925481964125
14.231221191406252,-0.2499536710549259,0.41470284941486324,-1.8429339777724998,-0.021509826650498,-0.006877302855305707,-0.017459530179327998
14.251221191406252,-0.3049948280278588,0.5442207335555901,-2.109390270105728,0.04639296972041561,0.05717453732851063,-0.009642697614799349
14.271221191406253,0.25223046135029664,0.48681202880799945,-1.737795924433006,-0.018967135983366967,-0.02800637769533194,-0.002614403164153311
14.291221191406253,0.029415585070675935,0.4845538845805898,-2.064265051204166,0.03689314779394078,0.02644897060278933,-0.01689349119209155
14.311221191406252,0.11273923039332825,0.5567496869559373,-1.7670650066442901,-0.02165951847818697,-0.01106010002468521,-0.008829013400518313
14.331221191406252,0.0929603153849536,0.5154073052040647,-1.8397392814348337,0.019301147076034676,0.034924595656162176,0.015263142942456632
14.351221191406253,0.055849766412255836,0.5745075738382568,-1.8068511158154534,-0.012356911686103976,-0.001336614027576637,-0.03491386839021156
14.371221191406253,0.2953021265682,0.4318017981099458,-1.765587970203579,-0.021774233108635035,0.03398406280330834,0.012203716989278447
14.391221191406252,0.2808020457199078,0.7086951680141254,-1.8625073947380255,0.017812308834593157,0.012621211313862572,0.004501407266086798
14.411221191406252,0.28304321058588167,0.4020470414612737,-1.6756372338913397,-0.03899389616851214,-0.009608515901218093,0.024200414824133626
14.431221191406253,0.3519424765223084,0.6418795258234118,-2.0684772693041555,0.030547081908996177,0.03152659022436548,0.00458122779253679
14.451221191406253,0.18646342705115124,0.36613784344009237,-1.538940910472852,-0.041324937351490766,-0.03698722513824071,0.02462630595165051
14.471221191406253,0.03709468088843199,0.5289058578088133,-2.122927516517418,0.050525450978287346,0.044229768875519784,0.01769192476266509
14.491221191406252,0.3004951935792635,0.26248131044561757,-1.517746734085065,-0.03500663108511157,-0.04880006475321027,0.03575359475215111
14.511221191406253,0.2359000657616809,0.3982257794115049,-1.9945102010720461,0.06044634872562286,0.04181251145897962,0.016366572446958515
14.531221191406253,0.2858395267062468,0.3257725216956058,-1.3097295516893004,-0.031233178246372437,-0.006181633655565308,0.028211192766664665
14.551221191406253,0.18497735553208963,0.4149656484603892,-1.482994412222908,0.06197244777493527,0.01510402515587544,0.030531719098388723
14.571221191406252,0.24997334319057046,0.2964955459956161,-1.1537253716974643,-0.010745880030730848,-0.017044336056925794,0.050713670349457306
14.591221191406254,-0.27543798528674424,0.09314332688476795,-1.4104451738723665,0.04352260900381069,0.008355445569168174,0.017114066166432896
14.611221191406253,-0.11669141357616215,0.004125232939453804,-1.1206053023367029,-0.0017454459796298423,-0.00848901986612146,0.053230506725687535
14.631221191406253,-0.43825477104556027,-0.03289146309620082,-1.3478579014013445,0.04008835333310319,0.011852338736162055,0.022847061241085057
14.651221191406252,-0.2623285507038052,-0.22770407217670063,-0.9697022530219894,-0.009608236475531573,0.012824760644034934,0.03544226081583713
14.671221191406254,-0.5138045143543476,-0.11950748399198084,-1.2655192029061417,0.04037934540462691,0.028499160377298827,-0.004146577772207664
14.691221191406253,-0.22265791383458372,-0.22924002930166235,-0.8174195863976133,-0.029155439496310994,0.015219799869459831,0.021656051208483136
14.711221191406253,-0.12637463787809122,0.07511065984531531,-0.8947700618025769,0.04342685942863266,0.04363602454888625,0.012189858869927466
14.731221191406252,-0.07244471885530428,-0.10487075502202163,-0.4465636308010005,-0.023810618607999212,0.001183795083578043,0.04013444767158199
14.751221191406254,-0.3276995114411863,-0.07694132844985116,-0.5545733782514422,0.036415241535486045,0.004668357984095059,0.01613663290162047
14.771221191406253,-0.10308474036707833,-0.17576080578937844,-0.2649524118943791,-0.01383949251404852,0.010582951500890078,0.052704812739399844
14.791221191406253,-0.3133804489321439,-0.17249184757435834,-0.5245459378429133,0.03568938243854368,0.03796450324178334,0.0015902589994540247
14.811221191406252,-0.38061990868897,-0.2053144473090884,-0.07278782336869978,-0.018674003523279283,-0.015337634957430325,0.006347603015856691
14.831221191406254,-0.6474547777731408,-0.004812018673847199,-0.5629252914331516,0.04917837269839503,0.018727389963707826,0.006633863851408383
14.851221191406253,-0.7045195931325718,-0.3580981288425816,-0.13145558093612023,-0.03485650819620651,0.03513520428808529,0.002086645725410676
14.871221191406253,-0.4295650533622477,-0.05039739987956449,-0.26163689618094615,0.04131815095209366,0.025844733518598405,-0.058442601339013904
14.891221191406252,-0.38008836218549336,0.022634532949377485,0.09481609242992065,-0.03068260219293086,0.009566127227607165,-0.011893808480231308
14.911221191406252,-0.44311335557359627,0.17609869722006122,-0.12780130864112177,0.040104869810355624,0.05386298710004178,-0.0063453342947023764
14.931221191406253,-0.07204270187986107,0.03795017711189986,0.36938668029899735,-0.019367174607297716,-0.053805852189829,-0.017519500315965962
14.951221191406253,-0.21532689118560236,0.26147076999327556,-0.14627130760649062,0.031003941272082034,0.04405669174780817,-0.022826923664158633
14.971221191406253,0.054722576590538724,0.3024187274629622,0.3686543140386235,-0.020953174588605062,0.0029943782956551347,0.0029634574658978508
14.991221191406252,0.2444683390753451,0.3579046197447884,0.05623688906028845,0.038425202268445084,0.002962164240429988,-0.0019237539930921231
15.011221191406253,0.24597325704022438,0.3349670313656512,0.265795111730061,-0.022641311140420263,-0.0033377172123510725,-0.009292169297696596
15.031221191406253,0.1602512045990232,0.329377782553655,0.3025090604625788,0.018821568566892283,0.017124034466118685,-0.002156629399444996
15.051221191406253,0.17644924291939892,0.44082104877520706,0.2993424716050264,0.006139384179482305,-0.0059930647884843076,-0.0018036649217446062
15.071221191406252,0.23110735691751338,0.26750950947440605,0.3444447796543822,-0.0056085816576236245,0.031119552700664136,0.0163704238841756
15.091221191406254,0.37494698553381917,0.2859856957846143,0.6365853660247227,0.022609591164687665,-0.0014061336982622683,-0.008047904615723038
15.111221191406253,0.5028408948640093,0.0919505847450634,0.4745835591340753,0.004257065525660984,-0.00022491652993151788,0.03601649571944415
15.131221191406253,0.34130839770953303,-0.0269484241301362,0.32351327492155396,0.020673308662942383,0.0521468539306397,0.014429027490333727
15.151221191406252,0.35719146472869395,-0.15450557678460805,0.8506641368279211,-0.005178813921137496,-0.014422752952164903,-0.01449141279902471
15.171221191406254,0.3179332771473271,0.21586094301619352,0.4486194071434394,0.03249536276333567,0.06751905399654383,0.01158435010615148
15.191221191406253,0.14396631015553596,-0.005017371466352092,0.9358524967107287,-0.007721503930692551,-0.009050185418448507,0.03965481047882753
15.211221191406253,-0.3273274785477132,-0.13733924731401695,0.669028920474042,0.039734760212801645,0.015032987010081237,-0.013161791595990971
15.231221191406252,-0.1586898003197764,-0.16994055431935148,0.7925224797066697,-0.022281318123306536,0.008700595007281077,0.016527353795911904
15.251221191406254,-0.365130211058364,-0.20734593287128894,0.7685858908630053,0.04498883190643033,0.019821210734447724,0.03567624796888607
15.271221191406253,-0.016488860380929955,-0.3981439614714731,0.7304206554107253,-0.0003701847875613664,-0.028397424674974782,0.011953789826635586
15.291221191406253,-0.16224606626094523,-0.4491012391466794,0.6386435456006588,0.013455068578009719,0.030159581302084282,0.003406712727214726
15.311221191406252,-0.03951427825444225,-0.23846692846437326,0.6466944517243775,0.028913745053966745,-0.031635393960259314,0.014040418014563055
15.331221191406254,-0.34103523233285005,-0.32455791307732285,0.4419422110417516,0.005775273281010451,0.054565880511043274,0.034983928450182666
15.351221191406253,-0.2269409956766108,-0.4819309782906703,0.8996122425022738,0.020589191668772582,-0.017174280239160917,-0.01545109850691318
15.371221191406253,-0.3529188545127043,-0.3554095421495783,0.7656780400657605,0.013292386275266826,0.02245491943454961,-0.00545397491529494
15.391221191406252,-0.23826393355364936,-0.2760542154418609,0.7984486613234505,0.01753007881866876,0.002771487611657845,0.020906476612601785
15.411221191406254,0.08781989414528979,-0.5262001421064455,0.8904744794800501,0.020961942961134458,-0.004272404701106316,0.02164034537308737
15.431221191406253,0.37341324374284024,-0.4743323264266741,0.45249304017697217,0.030347176472889818,0.01671230810436552,-0.012820286390893701
15.451221191406253,0.27400977735154675,-0.536742956316064,0.8094588505325481,0.002306646993350166,0.008282245437118448,0.0008488575873283466
15.471221191406253,0.0921018643648304,-0.12223575363797798,0.727611162509121,0.06376511882356634,0.014537212675804745,0.022957098426468852
15.491221191406254,0.2764513980003684,-0.2637664812802077,1.0415080309033364,0.0026435864923052606,0.01640431121331539,0.03818808400851975
15.511221191406253,0.11312617250780482,-0.199496619357897,1.0080518816163517,0.06441462336388071,0.009152389098556682,-0.030816970791635093
15.531221191406253,-0.24280335748872006,-0.1841483500387098,1.0700544740905171,0.010604585131886918,0.006834684440524585,0.0065684189604825124
15.551221191406253,-0.24985562995456245,-0.1656027159884233,1.0338178269587912,0.0582334657414819,0.03578583707835892,0.02749725132960684
15.571221191406252,-0.4668114891079527,-0.26420327588550685,1.372159884986767,0.02371949383597588,-0.0008618972292439975,-0.04785978267906193
15.591221191406254,-0.1637770568497127,0.020924903494523747,1.0824971328009658,0.033605936820406586,0.031039888744600643,-0.014314223573798582
15.611221191406253,-0.07883747019439673,0.0027785839868332217,1.2329093342137027,0.05190272872845192,0.008022567740003898,0.027129349384541136
15.631221191406253,0.07356466408285642,-0.25403462810447763,1.2217867411980468,0.026451736032095514,0.017233748035419463,-0.017147223645502252
15.651221191406252,0.0508174705372234,0.027119473175359513,1.1830170938683446,0.03910840234364625,0.015329511907844932,-0.0424100886298035
15.671221191406254,0.21605597437847437,0.12792897446746251,1.0488548206914547,0.042430780911099406,0.025176199018207012,0.053117532495032774
15.691221191406253,0.5635880553616637,0.05121429766271846,1.0995337503893179,0.055434191625414526,0.018513098409108558,0.03817965224076965
15.711221191406253,0.10621541898117255,-0.1177967810533139,1.3276544241918735,0.032187583968375975,0.004801007642439611,-0.04517562715036817
15.731221191406252,-0.12355209541187627,0.1539849427374533,1.1755890466510266,0.05415131434338,0.010438203269352657,0.019530682830639252
15.751221191406254,-0.19366990319752508,-0.13736986643823088,1.1073911408670454,0.06490240204305346,0.00461075511719605,0.06782438920607181
15.771221191406253,-0.28389452946771143,-0.5418186581696808,1.0856173930564095,0.04132928637137659,0.03537494730299904,-0.04915635854170311
15.791221191406253,-0.14418415898071624,-0.3574720894979101,1.4411744377295073,0.03156011717666403,0.03445330614113896,-0.03825332824671598
15.811221191406252,-0.264388270783996,-0.16414794409193287,1.3042584070370047,0.08128885266853077,-0.013757047508709624,0.01637212591711055
15.831221191406254,-0.18814860961407848,-0.3960569321479234,1.3320767923142243,0.019780117763072213,0.032605977935987004,-0.02455821665942995
15.851221191406253,0.2424623250383613,-0.18125466267761287,1.304688350909433,0.05377439409548991,0.028469232178575554,-0.07338360765267805
15.871221191406253,0.18649686289616849,-0.1123579458592056,1.4308664311007255,0.036374334612466,0.002549961840153979,0.015744546194074092
15.891221191406252,0.29890439317424117,-0.2381207789876587,1.2323970312452988,0.05563333889289689,0.032803283103695076,0.015301167685639744
15.911221191406254,0.32953159661748777,-0.328596594686945,1.5443350582799042,0.014445219816748471,0.021571043679227783,-0.04413717550079582
15.931221191406253,-0.00876914903418281,-0.04082855278278206,1.6561180432893345,0.04711423234999891,-0.04478828877576636,-0.021130799746881895
15.951221191406253,0.04046607367929011,-0.12990442419242654,1.3430268681815531,0.02986836486946197,0.057681549153383666,0.08093329077384256
15.971221191406253,-0.15406973983068448,-0.6196463266468532,1.2504330643157247,0.04053096389039982,0.007990595068216835,-0.048774995119350115
15.991221191406254,-0.13144506661205904,-0.6034728482118997,1.2437728961164138,-0.0093205680191127,0.05230667834888811,-0.055462828950564494
16.011221191406253,0.39000537768322274,-0.11193718344248071,1.1525619153255162,0.055592247669179216,0.04372248345940698,0.017804404122947527
16.031221191406253,0.6013250992879019,-0.4669729377918411,1.5087542415160418,-0.013627903789058966,0.07570175889736747,0.003917637382985098
16.051221191406253,0.35257065018679784,-0.26855295294380116,1.2846523637384986,0.04037850602431361,0.035626499919798216,-0.10017414541370777
16.071221191406252,0.1677831475822344,-0.18442591591620824,1.5330184822012445,-0.025725021757038908,0.04574335724536177,0.016537413281120218
16.09122119140625,0.47663219740042506,0.10657495498509784,1.1969386985924526,0.06623104710920771,0.04850773795268199,0.021422010172061752
16.111221191406255,0.8597982048521614,-0.2070678079680965,1.6063562871549608,-0.041908697880514385,0.037809751296103714,-0.023013063416106223
16.131221191406254,0.806324528950548,0.2039593214244203,1.1571191041773015,0.04911501573883871,0.06870544447186619,-0.014441805492701677
16.151221191406254,0.49192013226446435,-0.14520785480041015,1.7209036602780203,-0.02162642791422775,-0.015726481462456907,0.06530554708316198
16.171221191406254,0.5156883444251129,-0.07373079480208876,1.0594723824472585,0.030481574689243285,0.08297321098876007,-0.024957734051702107
16.191221191406253,0.6783030717991871,0.09543314883208745,1.7606891871441581,-0.05464300778240414,0.02347236485281939,-0.018578384806587682
16.211221191406253,0.3981482527560187,0.4277697161169784,1.2422906388095787,0.052598387972059346,0.04678425362302102,0.052251378208186795
16.231221191406252,0.3276063570700153,0.08134390049619226,1.667126048291069,-0.047927797916987945,0.01737820596688753,0.058437227087050625
16.251221191406252,0.6407445465334972,0.1677809405991744,1.35700255436444,0.005921939120136632,0.06554072489601057,-0.03338970002313314
16.27122119140625,0.43339275066532945,0.4805854434310367,1.6942196648328631,-0.042836517380500636,-0.005100416132827153,0.0178951911471356
16.291221191406255,0.037198961919642226,0.37185454362983567,1.3837047800547975,0.014012286097496579,0.038749887976656676,0.09867602587401189
16.311221191406254,-0.32280436931184303,-0.258398143145531,1.6420235966289392,-0.04000301573102073,-0.018424747526057963,-0.005519328057151356
16.331221191406254,-0.15529744886338542,-0.1677994173039222,1.2217538263910026,-0.029412239707965637,0.042184290292282774,-0.0127934871520168
16.351221191406253,-0.058731328870400175,0.08134497530848671,1.6054777585479285,-0.050831627315220285,0.030439584043260182,0.010249011071032686
16.371221191406253,-0.04653776092572589,0.3552917046120631,1.772257950970491,-0.03425671871312788,0.004831453117372179,-0.006526040421759868
16.391221191406252,0.27520668657356273,0.4997013013360269,1.4692660008087146,-0.05598576978396152,0.04538275031916426,0.03878871618059666
16.411221191406252,0.20870794086685754,0.28046536599772665,1.5673917492783171,-0.04895958469616447,0.004724336292094798,0.03767846533954868
16.43122119140625,-0.24579313783229173,0.038817994982153665,1.425023953025377,-0.0613742804688679,0.019174435530112187,-0.007606762898836373
16.451221191406255,-0.05874568733744576,0.24806280815764606,1.1798829978548022,-0.0765935292067374,0.07336205597647133,0.015465444659915556
16.471221191406254,0.10263452786807835,0.2574206769534216,1.5020009988012748,-0.06002033971809115,0.014270379987724728,0.028991085417283957
16.491221191406254,0.023971184452791276,0.2284794451452062,1.3951566560513393,-0.07268691700498059,0.05343487269847149,0.027601727391341105
16.511221191406253,-0.2690895559638758,0.0592895841733901,1.554800169658499,-0.08360313928352169,0.011922088015519324,-0.00555874841418065
16.531221191406253,-0.656426357500522,0.11811463395601145,1.1899139283655975,-0.06689871754930705,0.027070910877597557,0.0012446520004623092
16.551221191406253,0.0009161658680817533,0.07630817583622729,1.019072040765931,-0.0815983897861505,0.025719977130883864,0.04570793816775774
16.571221191406252,-0.220841161273513,-0.12385444210347914,1.057951064936268,-0.06976340876980382,0.03300495828545705,-0.03940548691150597
16.59122119140625,0.10231039613184235,0.09500332099490794,1.2114648530748042,-0.09163852694463244,0.025983331885583827,-0.014466242158863404
16.611221191406255,0.6429900792860618,0.32339054458483635,0.9150395877011473,-0.04714317705238168,0.01697390175080312,0.034727823935466945
16.631221191406254,0.6937112420470144,0.08134283284440644,1.0125058788994754,-0.08890489584025493,0.02634461615565697,0.004583969435450434
16.651221191406254,0.46715731558983975,0.08326831031593443,0.9470978234464127,-0.05729386624651357,0.03536133095676318,-0.017418238459238455
16.671221191406254,0.1414685072500403,0.13507373567403475,1.1816271423458722,-0.07126528072543878,0.008067212363154684,0.02978015468183571
16.691221191406253,0.321204082205188,0.35593006777753666,0.9477980397174379,-0.039736337328238634,0.018535079616327634,0.03759091226887453
16.711221191406253,0.5470662953658624,0.07303380215605638,1.1095748824291563,-0.06843539733473063,0.020010746725523405,0.04200860137105227
16.731221191406252,0.3188468479521768,0.11405211105093314,1.0151172003923916,-0.04047434502397857,0.016863908784528883,-0.007089842830101146
16.751221191406252,0.2925552343489596,0.3815897085245351,1.0934962662708876,-0.06796204823374831,0.009727548390125743,0.01314647017470241
16.771221191406255,0.04255935866632305,0.5527872632537671,1.1087927226233234,-0.03350910176013849,0.044212343914427646,0.04592237480085383
16.791221191406255,0.08565855720864503,0.25667079462993714,1.252525162834318,-0.0509240619888335,-0.011171532240808765,0.029459763909197606
16.811221191406254,0.2349752724466329,-0.09196588808630607,1.0741918467768488,-0.04977129680947456,0.03584428571912713,0.041702622193179
16.831221191406254,0.5298601898525106,-0.032821453051317805,1.0095846063867728,-0.03351318332273026,-0.00946063718508692,0.02380423041208121
16.851221191406253,-0.23611108692029606,-0.041383891546627936,0.7638382511185521,-0.05636195319985179,0.07144962713361032,-0.012929187352677831
16.871221191406253,-0.22730192865804819,0.2990725776400422,1.1838040881028467,-0.043846894812203045,0.00907602045031308,-0.005902198102700201
16.891221191406252,-0.22018657749283405,0.5562785714728038,1.0929951220022738,-0.018817636569199176,0.026401806943524397,0.057096726639989555
