seconds_elapsed,accel_x,accel_y,accel_z,gyro_x,gyro_y,gyro_z
0.060795654296875,0.010207578824833,0.2153057154566049,0.0629098990298807,-0.031244408339262,0.0273417942225933,-0.1529024392366409
0.080795654296875,0.07293949810676821,0.7675085351718167,0.10029949704226282,0.04943971958045469,-0.02686004458928755,0.2009885964411288
0.10079565429687501,-0.025285121111548493,-0.4672558112799577,0.03068102827889263,0.010615437266908912,-0.007460506260317519,0.0560421767505729
0.12079565429687501,-0.03770962193784139,-0.39379216877868367,-0.0664490154987552,-0.041279004392182676,0.04108383659813378,-0.19317078624187248
0.14079565429687502,0.12613968600807643,0.5956327870899518,0.18404984046023506,0.008282280498483296,-0.012826172080130132,0.04001044976055099
0.16079565429687503,-0.002923354305193289,0.17032620357171405,-0.03954983401195358,0.04391856126177723,-0.015296380187104497,0.15750195068621334
0.18079565429687502,-0.01709457836465297,-0.5763159278844381,0.021780990566531877,-0.029109617890759776,0.017990864299053045,-0.09315003453737342
0.20079565429687501,0.015366842276428774,0.19286835465886526,0.04571762548879931,-0.015563183861561919,0.004960591549816755,-0.0909577227848734
0.22079565429687503,0.04532453377670497,0.49074366011294,0.06627046151846068,0.031238256604590023,-0.012489152821915202,0.13312549474390872
0.24079565429687505,-0.03059812597281971,-0.30494179224807144,-0.026874306463552197,0.004493556772434089,0.0012196989463344966,0.02636273108814435
0.260795654296875,-0.008523567377943428,-0.2233556211118308,0.021915518605504634,-0.028065906656071088,0.016437624152443896,-0.12078122271084163
0.28079565429687503,0.04098090543047149,0.4386960504896855,0.059789909352795934,0.009333982200564734,-0.0031013094147789924,0.03732471889696634
0.30079565429687505,-0.003417766111980137,0.058999157282487204,0.022007434459801665,0.02384447673610208,-0.006703407671940428,0.09395275929943817
0.32079565429687507,-0.012539821432811698,-0.32821491351985044,-0.012959444629773841,-0.018850936077603485,0.013222789249698996,-0.07199396730562976
0.3407956542968751,0.03843807256464789,0.16713183769659237,0.07672083909380376,-0.011574945886974424,0.0039697226169546004,-0.04453044574632134
0.36079565429687505,0.04529773637842587,0.3096776460740029,0.017860965305439368,0.025243842782230467,-0.0078002046565852,0.08712179225883711
0.38079565429687506,0.019521026589768873,-0.22619320567648743,0.006934889508598344,-0.003333419224515097,0.000278438233535521,0.003942514477861255
0.4007956542968751,0.021265824547208087,-0.0937336181934282,-0.009413453727905948,-0.016228846808394804,0.013495846134366364,-0.07500058073978576
0.42079565429687504,0.0643231974216334,0.2895001744372239,0.0512313733383492,0.007674845329866773,-0.007364636525648696,0.03411420037083542
0.44079565429687506,0.007910412801902371,0.0038873938103232662,-0.022073885678941346,0.016134964129454612,-7.090263236126096e-05,0.05384189817024024
0.4607956542968751,-0.004210578479677179,-0.20340635776812438,0.018357633212261717,-0.01544638669857974,0.009896355907749111,-0.052250848599098156
0.4807956542968751,0.02774726931067292,0.1346880548752339,0.030647215938549428,-0.0032533692584781164,0.0009308453868184055,-0.01715413116839496
0.5007956542968751,0.008941441011939777,0.15684570482884538,0.02955808550671525,0.014744894409644818,-0.005072491209981549,0.05771524166014671
0.5207956542968751,-0.007487023168781188,-0.16076347843098573,0.02568812918755334,-0.0046145696454483855,0.004198428195793631,-0.008500860589459215
0.540795654296875,0.03170221115650795,-0.02727699049146619,0.04778511926850889,-0.009631183100995224,0.0076127966995313805,-0.043295620458023945
0.5607956542968751,0.025994720528416778,0.1694356171814789,0.052891853209944655,0.008339615864035484,-0.006918391485359572,0.03179135928633375
0.5807956542968751,0.00988554442000487,-0.05844671473814151,0.039531515731940914,0.006878766103272996,0.0028337729787747627,0.025769873610023086
0.6007956542968751,0.01026250592093564,-0.09610947851460601,0.03640023324282637,-0.009522406303472734,0.0050026656029418205,-0.04050684337158179
0.6207956542968751,0.019058326790706202,0.14448201293522647,0.044420036979125575,0.0009656406304127594,-0.008416539776467395,-0.004336887078594783
0.6407956542968751,0.005796564492757207,0.07884917021921367,0.017599191508549807,0.008220336159104015,0.010530187019603898,0.040513636553096255
0.6607956542968751,0.0013929080014001157,-0.11142575683155055,0.03483302282843618,-0.006475083426934741,-0.003678432059914356,-0.017984803548453877
0.6807956542968752,0.022070304282876874,0.05102959996226833,0.0021864293051598012,-0.00566907096312831,0.005868168140146162,-0.02601617068828359
0.7007956542968752,0.035092446060879606,0.1326079476797184,0.02800689666324695,0.005127840983275925,-0.002488791835178369,0.02768479893350877
0.7207956542968751,0.030495193654802594,-0.03958268880640254,0.002739176853493615,0.003135365921685961,0.002071121600043973,0.011543702975447897
0.7407956542968751,0.007846545498547935,-0.048127547833517026,0.00899597562224723,-0.007432444397471254,0.0027181075877928946,-0.02750604812561305
0.7607956542968751,0.009574681077555196,0.10732397913410727,0.02234063336014964,0.0012964495115384302,-0.0013084055594934536,0.006865427413894175
0.7807956542968751,0.009039671860096537,0.04920100270575737,-0.005293642931043743,0.0061011156610665425,0.0007849414258005046,0.021993435282225807
0.8007956542968752,0.011095554179576961,-0.08955154434389191,-0.0022213676082332664,-0.005818653718112249,0.004858563125462254,-0.014586050282405987
0.8207956542968752,0.035206325313875894,0.0528422444368671,0.009059926392240441,-0.002707621423666796,0.002876081393863631,-0.012505755078725355
0.8407956542968752,0.04567729254110885,0.0648884678265862,0.05463558965276488,0.003971137428364801,-0.003100443949027831,0.020215284907064313
0.8607956542968751,0.041508655519393076,-0.036624730700745754,0.021365163202519757,0.0016949623940742417,0.0034626496332466586,0.002595748057885239
0.8807956542968751,0.043203031852649745,-0.01965378954748126,0.060275159865654675,-0.005447900528829811,0.0014912350101005437,-0.017573921329263328
0.9007956542968751,0.034791957701230294,0.08375340209696402,0.046735210629183455,0.002171105962725705,0.001148224565231478,0.009295359749336346
0.9207956542968752,0.02592377289007805,0.011605870143746517,0.0479556578060989,0.0018233588804115052,0.0008008057218486212,0.013209325764374471
0.9407956542968752,-0.014543514374727076,-0.050266565816537406,0.06052564711437135,-0.004004965751328195,0.0026542699510137577,-0.012712108169130355
0.9607956542968752,0.0021509792918627067,0.05691823385789524,0.041313472384507124,-0.00151981471880514,-0.0007819718987757462,-0.0031132645133299616
0.9807956542968752,0.0006285558130543108,0.03435401151334654,0.04907646683862932,0.0015979162491287675,0.0010922886740802205,0.015649663166566987
1.0007956542968752,-0.0001305002392548704,-0.05167105654299507,0.020922321640967606,-0.0023839234192592645,0.004276476983065159,-0.0056164231788508705
1.0207956542968752,0.010380597529414478,0.005875242649078891,0.024607045920678926,-0.0031980991161145683,0.0001165337337232188,-0.009893971318835846
1.0407956542968753,0.019659410459876177,0.05257005428173306,0.005614185693982038,0.0004238119052713808,0.0006415244417402628,0.007495093769432339
1.0607956542968753,0.010884872739288601,0.001856750843180051,0.004617534504086733,-0.000962487228597347,-0.0009048632675737631,0.003409157493541232
1.0807956542968753,0.017145136687366024,-0.02005245214371914,0.0021084260513126864,-0.0038980455861604146,0.0002892011264487552,-0.01130369728225766
1.100795654296875,0.01107863765932887,0.07112485992564392,0.005427561918532709,-0.0019406587084229423,0.0019062677450934894,-0.0017471362344907392
1.120795654296875,0.0038962174208971804,0.026087007981846117,0.016303655810879288,0.0002709699898504364,0.0024919570183277485,0.008904765317904557
1.1407956542968751,0.0024598238022109477,-0.005299513098929778,0.011397871409959376,-0.0009975851547030456,0.0031708415493708606,-0.006222024672419657
1.1607956542968751,0.012395568815977746,0.01266861259550792,0.03957022835303288,-0.0030819360235279734,0.0005100472663379234,-0.005335469323960786
1.1807956542968752,0.02370020396145356,0.051813773524273084,0.029563539433154432,0.0023997273108503523,0.001953098856116048,0.0043073963510063765
1.2007956542968752,0.03582691387660852,-0.008395814097788768,0.03929610570560337,-0.0016144424727568747,0.0012760818574386573,-0.000509509287593782
1.2207956542968752,0.030403372242878146,-0.010745153077575923,0.03429181098703211,-0.0019630370583014925,0.0031174552790533988,-0.007564299414373972
1.2407956542968752,0.03705742467168668,0.036331337562249884,0.0401387730703407,-0.0009938784423691128,0.0010870208907811454,7.700899335141304e-05
1.2607956542968752,0.03883324031767528,0.00041170540055884266,0.03927840950347404,-0.0005421434675894109,0.0020997618532196546,0.003265353947278304
1.2807956542968753,0.028194779082779675,0.0003063656064817125,0.011591360782857104,-0.001539380307614491,0.002301117531650678,-0.007884458897795392
1.3007956542968753,0.03151563301618975,0.005044128114808032,0.03342656677118817,-0.0023095989172372384,0.0017406811036379778,-0.002001590066283878
1.3207956542968753,0.028481562980722522,0.02044539790550248,0.012347644988981244,0.00013118805246645194,-0.00022898984858466166,0.0025945304472432926
1.3407956542968753,0.02751152045735965,0.0008544919491183722,0.02098310799913549,-0.0036155864067612216,-4.4507180878103015e-05,-0.0030933698597258564
1.3607956542968753,0.030889606840404666,0.011529341021151664,0.017825079528117502,-0.002259745353043316,0.0019337522171193416,-0.005508943407700791
1.3807956542968753,0.03326170117023836,0.04844147894746077,0.011956207308171811,-0.00212713090855357,-0.00020634339234941928,0.0013685521072018066
1.4007956542968754,0.03471921832160097,0.012336813808661704,0.018133009532200317,-0.0008060226004144622,0.0005886493947191013,0.0002815196715076397
1.4207956542968754,0.021007212390922198,0.018976463722942167,0.0026430949847475013,-0.001692927828793322,0.0008103813442845889,-0.00630375203620123
1.4407956542968752,0.028180580000977076,0.03792424379609617,0.02420484106022278,-0.001772162602826089,-0.00034301495653334065,-0.0009951012708258593
1.4607956542968752,0.014635841068234984,0.04808333480348223,0.007453359662649998,-8.350923569369518e-05,0.0006296343868206275,0.00022575966246766795
1.4807956542968752,0.01868896485469598,0.0238446098718332,0.026809375235577783,-0.0018440868996014808,0.0002959143415069644,-0.003452701740314326
1.5007956542968752,0.020620814516967054,0.034126446373928455,0.008787678615146762,-0.00017178704650984235,0.0035800261578111735,-0.0016938398159299858
1.5207956542968752,0.017324870680191833,0.03425287403326537,0.01923777180718819,-0.0009571513624308727,-0.001790667722189986,0.0009816912242094145
1.5407956542968753,0.02389878928398755,0.009874415947172692,0.0241460800391073,-0.0001247940702638444,0.000528142137920401,-0.0006921376465778292
1.5607956542968753,0.03695298933468916,0.018149217040925727,0.0049182667593136295,-0.0005176199188957163,0.003722970878867661,-0.0028136291161844746
1.5807956542968753,0.0267528709478872,0.02309826664719974,0.018879455454395292,-0.001326535533627873,0.0014636955181276119,0.0021073411737082257
1.6007956542968753,0.013355298898657088,0.020411780312386395,0.007910140951803977,0.0008574821057930258,0.0011419516577598264,0.00232230463326757
1.6207956542968753,0.02078684545069579,0.0039034286847832366,0.018922300802369608,-0.0021311061909039543,0.0004760498365297267,-0.0018255363262877626
1.6407956542968753,0.025656599278029883,0.023099853251670605,-0.0038746074055257948,0.0009970693507711725,0.002296791676821745,-0.0009230809438785222
1.6607956542968754,0.022504366856161508,0.03232836790046123,-0.0018613780503196505,6.95420402795078e-05,-9.73400430659392e-05,0.001052916391726968
1.6807956542968754,0.04258873052464468,-0.0010507431293837611,0.017856115132693803,-0.00011872986160930504,0.0009645918282114111,-0.000638650571067654
1.7007956542968754,0.02873606137181275,0.02335177552398709,-0.002079031658747397,-0.0003870963690137082,-5.6091146138488526e-05,-0.003194503227743522
1.7207956542968754,0.017636086599631347,0.02129272493853983,0.02511659052041232,-0.0010501814109582146,-0.00044708652688643414,0.002429148451676833
1.7407956542968752,0.02301432898422268,0.024922627421265196,0.013444091296951453,0.0004851978171021577,0.0025368555787030718,-6.851885007638679e-05
1.7607956542968752,0.024644725121362926,0.02049192570864685,0.034816343415055816,-0.00224598601829857,-0.00022519189789478925,-0.0013368482783738375
1.7807956542968753,0.026090321048956727,0.03211490847418892,0.03035556488476031,0.0010534423369001214,0.0017893198516820436,0.0005631786733381248
1.8007956542968753,0.023223549677332048,0.02829392376085626,0.03534759890652473,-0.0012643009555233615,0.0008252520032908284,0.0034742444005326995
1.8207956542968753,0.008038844939762698,0.014452689342495202,0.025819520202245993,0.00026886832947617346,0.0004885925117434417,-0.000860011383831285
1.8407956542968753,0.01471791119735987,0.02109615468563692,0.024360619551313016,-0.0007268324142260718,0.0014059756356127673,-0.0001260254784868981
1.8607956542968753,-0.00034638077680374896,0.01088162142386839,0.0159493296499375,-0.0005272832922665744,0.0008618530976472076,0.004049198803497161
1.8807956542968753,-0.018948165848017992,0.009931418851348649,-0.001642413446721528,-7.041942041242822e-05,0.0011009398118929628,-0.00013174489685668526
1.9007956542968754,-0.012146983052177176,0.007893891524439702,0.011992019791225465,-0.0016656671531879758,-0.0005673984490702257,-0.0014497403119792683
1.9207956542968754,-0.016313191832395317,0.028895242109839066,-0.009876062560237488,0.0008404292684710293,0.0029477141521670525,0.0006087668443663282
1.9407956542968754,-0.022860221004986518,0.020644290023064674,-0.005749247954000636,1.7756441336623376e-05,-0.0014406199886131538,0.0011934460800031338
1.9607956542968754,0.0032364307948104017,0.006296043735865369,-0.022441481782463704,0.00023773297070152653,-0.0013946696114453348,-0.0015298183294118568
1.9807956542968754,0.003597625614837397,0.023471647372291425,-0.0017656516787614665,-0.001622180200873326,0.002745094205642159,0.0005548216297906596
2.0007956542968754,0.007134893629696052,0.02212913721941743,0.0035411093292913296,0.0011898221909872513,3.5796207011249594e-05,0.002176367255173628
2.0207956542968755,0.004572550702858124,0.013609686874560632,-0.002855036163902525,0.00022922929558268367,0.001685185990015908,-0.0017159761109885082
2.0407956542968755,0.02125432793279729,0.006530704236931697,0.033602578133032246,-0.00034416584455834005,0.00219934221648681,0.0011463997846313549
2.0607956542968755,0.008908735017075831,0.034623366674764657,0.03332008303988555,0.001883751945245413,0.0005840292929580463,0.00021035972162535005
2.0807956542968755,0.006080712909903354,0.01684942268659052,0.05487153697806969,-0.0024624432205691683,-0.00256486893663217,1.5639099702048186e-05
2.1007956542968755,0.007937394920059054,0.029653012525355956,0.021533259055138438,0.0008955929731454744,0.002878881105196066,0.0010149554094786182
2.1207956542968756,0.0025845774697543437,0.013740056392217577,0.03934157355106302,-0.0008791578002557572,-0.0022565542874436744,0.001323378896366749
2.1407956542968756,0.01212362447383189,0.0018850047633297313,0.01779221758353085,-0.0006777443864618567,0.004444780176172396,0.0016444430102116403
2.1607956542968756,0.016945319334370112,0.015950397560018762,0.0005660174688326271,-0.0005096637022132507,0.001968396376850093,-0.0010412819576062148
2.1807956542968756,0.020825964121259248,0.004221741767674772,0.016715902937160257,-0.0013425086394835595,-0.004399515193319358,-0.0009762231536515784
2.2007956542968756,0.004485001846800676,0.02598548369133697,-0.016471165288681512,0.0011501571495868843,0.004126681115275689,0.001800675114894355
2.220795654296875,0.006670877123651379,0.010292506373929006,-0.011312385312401965,-0.0011315998575395377,-0.003205332258854297,2.013443006565805e-07
2.240795654296875,0.0061641269860937395,0.023195641404234888,-0.018641175403726905,0.0009697960981103267,0.00042286555656339744,-0.0008606318500098936
2.2607956542968752,0.010679684562757091,0.033785342514564505,-0.005081966075516255,-0.0002406785450902094,0.0007503503928373083,0.001532220588229688
2.2807956542968753,0.02129257935369438,0.014065060987709167,-0.014097072104929357,0.0013512731014306367,-0.0010065961511374999,-8.647022805067485e-05
2.3007956542968753,0.008329019708624874,0.03307302009193775,0.0014005096712947686,-0.000707243831202258,0.0026342048786045054,-0.0005398067582352823
2.3207956542968753,0.02057909325532435,0.021115540682859618,0.027294352181221965,0.0008090469249918043,-0.001271479578274105,0.0008476589048862113
2.3407956542968753,0.01164479226714527,0.015162114620139054,0.03097587426800276,0.0014182509502725107,0.002325102619403896,0.0003286962203756279
2.3607956542968753,-0.04571875905341541,0.004574615804864067,0.05203039444930591,0.0007245048645706276,0.0002313175891186072,0.0021462244260070243
2.3807956542968753,-0.04683228091266966,-0.037043998000889,0.17178004053083462,0.0016198471571344292,0.002968846668424624,0.004174983045519603
2.4007956542968754,-0.07036788559500132,-0.08158248628280994,0.2200586458818127,-0.000126372602179918,-0.003736575306439873,-0.0028506580891465
2.4207956542968754,-0.025212966309399242,-0.08374427365397186,0.201313569320628,0.0004293669164261882,0.005324498958824005,-0.0004992902088173587
2.4407956542968754,-0.0015046081650395408,-0.10136173556785116,0.27063449831198183,0.0010312148764423871,-0.003646860789994216,-0.0011636234368153152
2.4607956542968754,0.01637115240855371,-0.09549392049177938,0.23980552670089392,0.0007543479826648593,-0.005139402119870416,-0.002791687774250856
2.4807956542968754,0.00993057311263266,-0.04658061388473543,0.17740928158708713,-0.002859673042922244,0.0021178398993360846,-0.005285256700759308
2.5007956542968754,0.03538391975069521,0.005250964752753584,0.1400116453894832,-0.004546026246286756,-0.007982487235886114,-0.002502176076867624
2.5207956542968755,0.009367521640193686,0.03611009709090491,0.05067168154765145,-0.0029950689730734964,-0.0014380895342884007,-0.0013084266045098197
2.5407956542968755,0.020610335520595578,0.01963546970848025,0.028490439479170408,-0.008962782299168089,0.0036732633207040163,1.7009680919918096e-05
2.5607956542968755,0.029497109041622994,0.04900502034552112,-0.042217974019257816,-0.006560141684641264,-0.0022429626998960524,-0.003382603029666146
2.5807956542968755,0.037217418092976996,0.03487445859254542,-0.059392070083167936,-0.009984747266277167,0.002789872177834159,0.002141130506035402
2.6007956542968755,0.034494901732727075,0.02926312746541257,-0.09129652138516811,-0.006914523947028349,-0.0014073458745228334,-0.00021261874895981415
2.6207956542968756,0.026343975206236107,0.049783051604080655,-0.11478575208706264,-0.009212675288762866,0.001389540104477093,-0.0017648744890184616
2.6407956542968756,0.011116678569038517,0.0421789297505461,-0.09969305373482738,-0.008482221152490511,0.002971712219409645,0.0011153836133664054
2.6607956542968756,0.00583762402350702,0.044157046356231154,-0.10051480204203983,-0.0041651409126198715,0.0017727227716968711,-0.0001671295397558938
2.6807956542968756,0.017024150869393434,0.01411198240353279,-0.06570104036385706,-0.007492363399416911,0.004032185125760791,-0.001647143335527148
2.7007956542968756,0.0033310237088514704,0.03272270660206753,-0.05708780963201674,-0.0022514528253822818,0.005373690212743298,-0.0015932341647627614
2.7207956542968756,-0.00513627431134517,0.013541746664397475,0.013798695099611067,-0.0027309560071544637,0.0025071182381350555,-0.0006072409604847559
2.7407956542968757,-0.006320315000386454,0.01888148231843906,0.019712383009000606,0.0002848028529841418,0.0019392741259546228,-0.0016253401837405665
2.7607956542968757,-0.02443895700779435,0.03493463162102959,0.05481128321678107,-0.000551863220269234,-3.7504437832974004e-05,-0.005102623900611171
2.7807956542968757,-0.05069097153344716,0.03483855646158798,0.07302447239720355,-0.00013494418985539433,0.007214074110461539,-0.0022811755965235284
2.8007956542968757,-0.05878224029082121,0.05500195119933795,0.09333096159517545,0.002875461227143742,0.001073459494332821,-0.0037131788054629053
2.8207956542968757,-0.04660416057706064,0.04640671592538392,0.10567888166050327,-0.000984969090414219,-0.003771821936508196,-0.006219270930719538
2.8407956542968757,-0.030233957961394175,0.07308360878845903,0.08231828350561149,0.0011942672081840502,0.0017927723435464916,-0.005323069738024997
2.8607956542968758,-0.029896538276373175,0.0361007321648036,0.10770557916021117,-0.0028956580294916233,0.003455957877801553,-0.0015509131133292684
2.8807956542968753,-0.019322161990258973,0.02951382300723003,0.09134474698648028,-5.925545539847293e-05,-0.001981380414729181,-0.004701856488995701
2.9007956542968754,0.0003135816410462874,0.03471933400018612,0.07649119048232125,-0.003794385303059978,-0.001796031691355208,-0.005083700035250416
2.9207956542968754,-0.003940241036524999,0.015312756567904259,0.06624149891573086,-0.002184268761157853,0.0060491915165291725,-0.0010549048015666565
2.9407956542968754,-0.0028251995343526,-0.013063112037784447,0.0729001659165114,-0.002837424142965649,-0.003151129870254835,-0.004642231527659934
2.9607956542968754,0.00020343757705968183,0.0028967504894621765,0.038366642734971805,-0.003910257163473904,-8.864322523629892e-05,-0.005565988557357218
2.9807956542968754,0.013377383424886036,0.0014301222768845854,0.024951099465331007,-0.0027065254379577963,0.004856186803748977,-0.004495894921484145
3.0007956542968754,0.007119230305853083,-0.03446494137176307,0.045655380681078016,-0.00245466002688876,0.0032729017156176645,-0.0036867533606435325
3.0207956542968755,0.020368651488278017,-0.009942860209856333,0.008082287707427799,-0.002921847683143757,0.0018733014699297097,-0.006639337580989891
3.0407956542968755,0.035293018306448876,0.007240256213571729,-0.0034512405169216938,-0.0038719767211318774,0.0011969444021254422,-0.006611974120641552
3.0607956542968755,0.023560166175503147,0.009217701323042934,-0.01026582495514601,-0.0008219137830921672,0.008599493526442195,-0.00459700226627898
3.0807956542968755,0.04392897670802798,-0.0022995419330542385,0.03967767513471717,-0.002345530629294517,0.0004552755843206101,-0.005860647499697795
3.1007956542968755,0.04182361174605274,0.01927414995225789,0.019479186711066288,-0.0004607342767291983,0.0004487537672132374,-0.006770844691851948
3.1207956542968756,0.03955220907579746,0.0369348430797875,0.03074278412686818,-0.0011895278924830355,0.005429108518172306,-0.0028197147235476867
3.1407956542968756,0.04413441293654491,0.021328372570343243,0.0571350475989894,0.0006789835862142134,0.0029392442753725175,-0.002399428582231998
3.1607956542968756,0.034964086260074655,0.03366727462759107,0.0339577529487016,-0.00028736146837926417,-0.003241183476319139,-0.00665312011136636
3.1807956542968756,0.03556285015882165,0.05565642182840227,0.041562346719291036,-9.223314880827153e-05,0.0009707177805388041,-0.0035877482741617246
3.2007956542968756,0.025093385720650063,0.03296145041012014,0.06784701376024782,0.0014071719655452727,0.006200667797699561,0.0004660828846909194
3.2207956542968756,0.02946875799138414,0.01289783652289711,0.09334745885925788,-0.0003055157160859263,-0.001714739817190307,-0.0021958825594037045
3.2407956542968757,0.043343942680613465,0.01671183230858534,0.06592504666797254,0.00017629236541765253,-0.004794934619033085,-0.00376307823519871
3.2607956542968757,0.028173235465486664,0.02525186491551308,0.06879536105685373,-0.0013733415750048052,0.004425654500750048,-0.0012642316419372716
3.2807956542968757,0.043526596174598114,0.0046001903321571,0.09796556414488025,-0.00031895070025659677,0.0017275107111393206,0.00036509409159087697
3.3007956542968757,0.045449147239783064,0.010613928466603714,0.0654647021794199,0.0016759582798622156,-0.005179553871445373,-0.003186387979185331
3.3207956542968757,0.048493158087482564,0.018894752453443926,0.056938323764414114,-0.00034265294946739255,0.001530959503592793,-9.39001279235707e-05
3.3407956542968757,0.041781025430460916,-0.0016200117555439447,0.07852764520964657,0.0005597667073419567,0.007541084636698513,0.0010973114092681093
3.3607956542968758,0.031088356629093532,-0.004992923195538668,0.06744096043976283,-0.002320683985804412,-0.002562155192717439,-0.001560741830486257
3.380795654296876,0.026384902059601235,0.015690072062771183,0.04447516721591739,-0.0012374086597911167,0.0014815383556716938,0.0006780506781063928
3.400795654296876,0.007358948625216703,0.026315008028208017,0.06172154605023371,-0.00017470534283506192,0.007655400664374875,0.0008117554953098474
3.420795654296876,-0.0064145836340568,-0.005306246788437779,0.07208674513757334,-0.00010325598473987668,0.003925214806307401,0.0007665884454065597
3.440795654296876,-0.008398173548626054,0.025704527082938286,0.0404594622445848,0.00030406509309449095,-0.004421206451595093,-0.0037877654713038096
3.460795654296876,-0.004300750255040239,0.02330365174271316,0.044481699719057695,-0.001077558979224862,0.002264151045365822,0.0007393349573005792
3.480795654296876,-0.023493475449214502,0.011036983717190205,0.05409278471341544,0.0013486096267337833,0.009329741897382763,0.0009378846787051581
3.5007956542968754,-0.00786976890433304,0.0038953735141106964,0.10168284232482958,-0.0013397529687223127,-0.006357192352324584,-0.0025744102531129734
3.5207956542968755,0.0009902260092292986,0.025077619562435507,0.03273062948072207,0.0027878296048543284,-0.001804381254699526,-0.0019316645974043433
3.5407956542968755,0.005762064596400421,0.027482068617503127,0.051016176488208116,-0.0031975479083808872,0.008229783584930138,0.001406875607686962
3.5607956542968755,-0.007524091950736342,0.010108317851483601,0.09310397854004675,0.0012439479916465776,0.0029201820323176706,0.0010401143645810643
3.5807956542968755,0.014089806058443163,0.006618167282358521,0.09006122757177033,-0.0013168052159984913,-0.005556084707466129,-0.0028234252106816276
3.6007956542968755,0.03862712741193112,0.023762557770399345,0.04270434289793438,0.0008694617857110454,0.001955492577487347,-0.0013910728038419424
3.6207956542968756,0.026913358113813138,-0.006603180576946013,0.0667633052793517,-0.0007879199813215855,0.009742287828933242,0.00259771173241869
3.6407956542968756,0.038988356868411914,-0.016698827902140296,0.0771110714542059,0.0010143735391533177,-0.006579460137584199,-0.002255857491929173
3.6607956542968756,0.042260053841212876,0.015148458381774942,0.03770376973301131,0.001461191461307879,0.0007258459989259647,-0.0012377738793905484
3.6807956542968756,0.03754548396637043,0.022872011500363245,0.04683739252826458,-0.00016598691446312124,0.004546426525204503,-0.0006175824788542276
3.7007956542968756,0.013130080418122794,0.003880730996258312,0.05713194849585929,-0.0007743939025366502,0.006000332275203785,0.0010663185899812593
3.7207956542968756,0.025919513369835143,0.027956625053730262,0.058661856033827155,0.0023303576661589326,-0.0055507016123513015,-0.0028329517516349017
3.7407956542968757,0.019909812187992534,0.024907572285907384,0.051938167973770356,-0.001553941178227181,0.0030593498463392173,-0.0004581373895125556
3.7607956542968757,-0.0027197833930759957,0.021867801081580335,0.044564178035514004,0.0001354532689707042,0.007493036560140617,-0.0002098385713179167
3.7807956542968757,0.016772368808403538,0.002892900096937993,0.07581883080734567,-0.0023851893287548023,-0.0023789825218046125,0.001885450172914036
3.8007956542968757,0.01746933516797473,0.034512956175118556,0.03344956462005152,0.0014186303380825894,-0.0042044636405414336,-4.730347827574996e-05
3.8207956542968757,0.011613137501389948,0.01758921947507489,0.06097814573496431,-0.002873167637273584,0.0062616483500527505,0.0017958110193376517
3.8407956542968757,0.007523441593943939,0.03079752664149493,0.03936342153764027,0.001764132696565937,0.005023171541559064,0.00047924501267408525
3.8607956542968758,0.005465700813487943,0.00526207498242438,0.07986726923385491,-0.0025471190157470274,-0.002691005032513514,0.0016162590627355413
3.880795654296876,0.01052723984998431,0.023251857335511796,0.02645109473210261,0.0014803134619561682,-0.003029041093840386,0.0002077646809841243
3.900795654296876,0.000617342912474839,0.01490951406209242,0.048303836594076895,-0.002069574181843197,0.008790703760083294,0.002726617623903553
3.920795654296876,0.026821113815940503,-0.007863494185762761,0.07542395977047187,0.0008232992712933094,0.001019123990876321,0.0015294152855602307
3.940795654296876,0.02164945367217665,-0.004963176008837453,0.06422494238094664,0.0005071263226314136,-0.002092296396887305,0.0008231856637637138
3.960795654296876,0.007896950896091794,0.017459886265635934,0.03978905280634418,0.00030902274983949155,0.002766137443474434,-0.0016347584234755676
3.980795654296876,0.005617294814899307,0.027657547395458938,0.0472373714731332,-0.00030422965775904823,0.008016828104014984,0.0033271484035019235
4.0007956542968754,-0.013913353790843339,0.015560847255288952,0.08554419755186247,0.0012124822401974567,-0.00783463423652788,-0.0008980208000490124
4.020795654296876,-0.0072694851609498455,0.045987730420358204,0.004063197147060743,-0.0020170952730761233,-0.0013465475670853988,-0.001506673569925592
4.0407956542968755,-0.014938780726707526,0.05725380227335969,0.027865219358059846,-0.0006802689125737922,0.01233382083112608,0.0012447547273838253
4.060795654296876,-0.026594089277723575,0.019545608176999713,0.08151220179041069,-0.000735929405048062,0.0007472248239026648,0.005187411929194729
4.0807956542968755,-0.0016777406537840276,0.021511105528057916,0.024703318755009578,0.0022274503058262916,-0.007938563880722114,-0.0010574844001842241
4.100795654296876,0.02387456516661185,0.025291353085256717,0.008884292937475308,-0.0030986300936522936,0.0037368295840349976,0.002743177259097416
4.1207956542968756,0.013714633258386653,0.00405172737133246,0.06445401024249715,0.001712921628374713,0.006620178721872487,0.00553696064778806
4.140795654296876,-0.008215055548346298,-0.008494925786262045,0.04010270763723762,-0.00033222082604542053,-0.008210600823619385,-0.0013255114731103202
4.160795654296876,0.02583323016138229,0.01394264919827364,0.0007462089671082265,-0.0024661307701619476,0.003315547700663018,0.0006414384638053014
4.180795654296876,0.02262197154257748,0.01273318770542218,0.006474754552987292,0.0010460701226468663,0.0034126134879292097,0.003528314337324286
4.200795654296876,-0.008008494273603008,-0.021546624362535658,0.015096198329829905,-0.0032929627720665934,0.0071039927801566346,0.003944623357815204
4.220795654296876,0.012046701214796174,0.003675476473932516,0.05471215843880999,0.0002305801274439072,-0.005553950511670454,-0.0014479824204860939
4.240795654296876,0.03684618503579936,0.000552928377873211,0.011489176528719027,0.0028071232280872005,-0.0011305591544930602,0.0011014020295375118
4.260795654296876,-0.004326271639594528,0.0025669698793608937,0.01544395179387279,-0.0017979391156265152,0.013976914061302283,0.0007405234496493878
4.280795654296876,0.010445734606567284,-0.009944574950076805,0.12431148542399229,0.0007218889174277482,0.0005305351157442957,-0.0003164205138215726
4.300795654296876,0.019515112863168982,-0.01536545853673247,0.03454053330552354,0.004604703333708623,-0.006602936784527537,0.0015732524813311648
4.320795654296876,0.003920413375893144,0.0008600694182637317,0.09171667526972402,-0.0037095308489397756,0.020210514929230337,-0.0011060369188618262
4.340795654296876,-0.042230391614818175,0.008510285189221188,0.18453650483101497,0.004677565491304108,0.004799283505934508,-0.004896349185421715
4.360795654296876,-0.055980511654602286,-0.0016420299898347577,0.15701633710069102,0.0016394467582370067,-0.004235055843718787,0.001971459641448716
4.380795654296876,0.02218460819872568,-0.00755174787180371,0.16973539245796365,0.0028086377730513223,-0.0021900316133393266,0.00403404915331195
4.400795654296876,0.04032938965164838,-0.026752522676932955,0.12654887617830912,0.004051434744603471,0.0002365688456223464,-0.003358535755967874
4.420795654296876,0.027572868785411795,-0.006337953875089381,0.1190656595153641,-0.0014716339255420104,0.011850056860425132,0.0019820545907222476
4.440795654296876,0.039738792384308885,0.0301646103975344,0.16755781060661937,0.00461402051261564,-0.005017286429829619,0.002773271423310268
4.460795654296875,0.017778941316176026,0.012784490821056881,0.09362645692712537,0.0005931395212012646,-0.0045526101688991025,-0.0021084116141308782
4.480795654296876,-0.008060895205127342,0.03672086917601379,0.09449452497058734,-0.0034784375532797697,0.01656940607054703,-0.0020849516289651875
4.5007956542968754,-0.011470702656514132,0.010621985506661848,0.17989883969778467,0.0005823530404578337,-0.003893125460847893,0.0065902672221364615
4.520795654296876,0.004269231597759921,-0.034990976468469076,0.08779947987286497,0.0015940674653890366,-0.005509090152891228,-0.0005788088907769514
4.5407956542968755,0.021233426831988717,0.00014294736050853542,0.09705310343766922,-0.00358705842145312,0.0072948577302849454,-0.0014865339383860821
4.560795654296876,0.017842911616159127,-0.042301163257920625,0.1618519604363231,0.0034398992283633354,0.007609138467505906,0.007712955691106008
4.5807956542968755,0.013352241055549241,-0.049847674348969306,0.16117564419212402,0.001869645989615411,-0.0010503801929598409,0.00034153071016504753
4.600795654296876,0.05909653321308603,-0.025222842588930885,0.14621596300906878,0.001912468320461662,-0.004998288215373505,-0.006125328571416618
4.6207956542968756,0.0947124627163472,-0.04318078240655913,0.26276358523407045,0.004151381950923254,0.03407861233264836,0.015463865923832192
4.640795654296876,0.09042589541148222,-0.08399305681086347,0.3431300910246971,0.013983072923275575,-0.004716779319996087,0.0013478414484768336
4.660795654296876,0.06425476694505214,-0.09395114608950254,0.2383663398088387,0.0005383991621719204,0.013192728888792029,-0.0023511234964557984
4.680795654296876,-0.015373641116772262,0.04485437421248186,0.2869828771137774,0.009131330032053528,-0.0016629654217399153,0.0037738014855723677
4.700795654296876,-0.001247983680062129,0.0005236334349851879,0.2570697074690719,0.004564717302954646,0.004632957216869162,0.00667024031199518
4.720795654296876,-0.09385602999951838,0.039965719585329434,0.20695994675101118,-9.346103852605057e-05,0.0075347003847908685,-0.010422362780627185
4.740795654296876,-0.022955152684711974,0.012361418171575175,0.29636679967928764,-0.004418971572174764,0.004242792684635169,0.0036836637712065064
4.760795654296876,-0.10313118590560823,0.041160294094715034,0.22492903230934652,0.005145552915849799,0.006692955183529343,0.00069116463047301
4.780795654296876,-0.01903780393987664,-0.034103838994743584,0.32320281996854433,-0.009882320112869377,0.003079301161847286,0.005307275728830209
4.800795654296876,-0.05308189614505197,0.0018279535267374837,0.20676602013574275,0.006044314623058624,0.004179075702495939,-0.008549886702349484
4.820795654296876,0.02751254910746469,-0.024176830263179773,0.2912341161620493,-0.006258327878784349,-0.002793475346218705,0.010191362980628485
4.840795654296876,0.02787032558055053,-0.03860007388826653,0.21262733841598888,0.011746516460126758,0.0026474170605813073,0.0012286014054448925
4.860795654296876,0.11097936116392257,-0.0661784220708304,0.3178620617960603,-0.008681404558492317,-0.003469039082754176,0.0008497080510854876
4.880795654296876,0.07332291106809821,-0.037737008427119155,0.26751697770883354,0.012930104770296177,-0.0005029298194294806,-0.004384528134011324
4.900795654296876,0.10065406657784685,-0.014395459265429456,0.329520780613773,-0.001702104906413651,0.005066482908787115,0.004711095126633214
4.920795654296876,0.04540196133479855,-0.04081937050337924,0.313608281281485,0.007474869894070849,0.008078086536018322,-0.002837437429377868
4.940795654296876,0.06365811433127298,-0.014437804510653685,0.3440044346943022,-0.0017715032367758609,0.007830526632952183,-0.0008948965574855579
4.960795654296876,0.012235653904074585,0.005724038045010173,0.3429130689745819,0.0067317178708465935,0.008427421238322472,0.002575815222770506
4.980795654296876,0.03861966209719551,-0.013799764498416162,0.3741471219475331,0.00027977598393135974,0.012185431096097953,0.0016219494055708845
5.000795654296876,0.02467223596662059,0.0012954061212885233,0.38416511741647147,0.0005186276533911998,0.007649985346255748,-0.004841374517371344
5.020795654296876,0.02243269203983291,-0.003988990139246297,0.40005177056635355,-0.0026106843800374467,0.006162913717174836,0.0011780090149653237
5.040795654296876,0.02145079889288021,-0.02119315088981584,0.39726013504751495,-0.0014881997521005836,0.008382101823090902,0.0006051567882932985
5.060795654296876,0.032116085780129956,-0.04283200936651531,0.3987019073128722,-0.001728417716461778,0.005822721913548808,0.00037988165300780754
5.080795654296876,0.02662683023582244,-0.020595395849462822,0.38520600963324386,-0.001335255323508731,0.0029293555376352395,-0.0005529316673061495
5.100795654296876,0.01498942631923475,-0.024035980608188012,0.3624413078347959,-0.0010975376093809149,0.0042640824376717346,0.0033558125471469563
5.1207956542968756,0.0018875323080269743,-0.02529781641174251,0.32631144352401414,0.0004548212640090413,0.006011247175099086,0.0015748228534909938
5.140795654296876,0.016477356191911593,-0.0199857998584658,0.310293348807845,-0.0010887085151589317,0.0013636997895436292,-0.0010852053118460068
5.160795654296876,-0.004528276350885896,-0.0046842111244898765,0.31705978375128807,-0.001907109120509722,0.005439103186445912,0.0005932545685625578
5.180795654296876,0.005503417212364783,0.012328075761503375,0.31807361964046404,-0.00025141113573369376,0.002256021479136773,-0.0016770938260525761
5.200795654296876,0.01525497512974488,0.009582738950051163,0.3267983275702536,-0.002160792081883609,0.0037476083696912155,2.066901453619738e-05
5.220795654296876,0.03720762593457894,0.008393567548240392,0.3366913756009858,0.00020290738342254412,0.006684586781208842,-0.000849763458687283
5.240795654296876,0.0684566051170891,-0.00980447916080842,0.38008546010618266,-0.0016973206960056364,0.005343204726829676,0.001157875452880806
5.260795654296876,0.08946472777232121,0.012790126688180109,0.35654861596444554,0.0009415463694030749,0.006147992481047825,-8.76660448667198e-05
5.280795654296876,0.0990485884988388,-0.002521317683263443,0.4217459977256155,-0.005420833828548066,0.004857632667735945,0.0010581936422628753
5.300795654296876,0.10445553426236007,0.002070169832692164,0.3979464213079055,0.0001306068474137542,0.01002956645011737,0.0021554219569853393
5.320795654296876,0.089432853040607,0.0026451227183624973,0.4331609543893697,-0.0058570740404260205,0.004423774152899535,0.00047170398676646093
5.340795654296876,0.07178529078586054,-0.002524399789042362,0.40502375626695436,-0.003895966611336001,0.009548695173011797,0.00047054366452194655
5.360795654296876,0.04201914922279694,0.008953640572886314,0.40074995605858016,-0.004702455512484524,0.007121762316317056,0.004597866945683659
5.380795654296876,0.04061301232330854,-0.029696859440337786,0.4013412500854007,-0.005139557168219532,0.008329219399345663,0.006637801231942107
5.400795654296876,0.005026534028007829,-0.03440341208175112,0.374586084192681,-0.004171661446030114,0.006962591065440759,-0.0017759157151245476
5.420795654296876,0.02805992642523351,-0.044184521986505944,0.37248173782864624,-0.008082801415693274,0.010786842733538715,0.006424550193392671
5.440795654296876,0.03289151850551821,-0.049076627703749987,0.35505744525385324,-0.003250869099327507,0.007489990525192209,0.0045571335973854845
5.460795654296876,0.043030354878207236,-0.04192343614258519,0.3729684943413039,-0.005687967810569602,0.004583199867926929,0.00043355613545205813
5.480795654296876,0.052062887068836716,-0.03459315281058358,0.33062365181040076,-0.0036040946672064155,0.01080971361214783,0.003054665338521648
5.500795654296876,0.03946370572580217,-0.03308575671880023,0.3685417322431348,-0.004018125191436333,0.0037679871975247136,0.003788398132606035
5.520795654296876,0.045221081267162136,-0.03349993162856651,0.3352221306872197,-0.003039466772711776,0.006945719749261186,0.0014481571116491561
5.540795654296876,0.030811384029337825,0.029398376584493065,0.3545173900540141,-0.00558389009553464,0.006609269773988486,0.000677488368271991
5.560795654296876,0.013800600608227617,0.005911885492248192,0.3556008605369421,-0.0037825842775710845,0.006323377194475279,0.005072985545404069
5.580795654296876,0.007314211201145266,0.003052032261764329,0.3581686227758389,-0.004413687855563295,0.00840378549091228,0.002374740763564706
5.600795654296876,0.003972606883472915,-0.0007396223340939859,0.3728072128716375,-0.007128394854335003,0.009183940122667109,0.003344409176242476
5.620795654296876,0.010331276233646927,0.019415619208336257,0.322003738962827,-0.002874686241507786,0.004792219013984187,0.005367929469024588
5.640795654296876,0.07166470803804222,-0.012962799588422218,0.32101178279082354,-0.005726600224916875,0.002954963367684063,0.008256393857103797
5.6607956542968765,0.07301103457619093,-0.028170261694989682,0.26720408542315344,-0.0034559046535645897,0.00842998660358578,0.00300850288912763
5.680795654296876,0.07887542979993192,-0.024396077881641567,0.2453328522987506,-0.007593674432702462,0.003902310257487988,0.005286036485538211
5.7007956542968765,0.07551382633217453,0.0065118104112857865,0.2464051200615898,-0.0032627045881170012,0.014791378802434637,0.010699852874464044
5.720795654296876,0.021845341191619405,-0.01267849586905986,0.2847285972807395,-0.0038768198697851446,0.001089983874885966,0.0031516941891848007
5.7407956542968765,-0.013019871831512706,-0.039849118778282656,0.2662129847568973,-0.005620788059498217,0.012712314835555039,0.000959135453533625
5.760795654296876,0.007977592843459554,0.015383798966993528,0.28411459668523026,-0.002635701251571527,0.012658944344575327,0.0014484388937988128
5.780795654296876,-0.030409067038937528,-0.033582859492870126,0.3328520276988867,-0.002987338688862459,0.008795786567144262,0.00481933671426027
5.800795654296876,-0.027850562233926252,-0.006282582674486823,0.322310624084774,-0.00032560738791893417,0.00868312953406447,0.002728658135247815
5.820795654296876,0.005541244922886803,-0.0012621069174649244,0.3096966894192166,-0.000626776510972896,0.004008612682094832,0.00266269440178472
5.840795654296876,0.034860334134918715,-0.004113758148486954,0.30013838466825327,-0.0012825963025358783,0.011804532663547621,0.0031096920520624835
5.860795654296876,0.06800356725553011,0.019708696647834766,0.31642922540271096,-0.0010388788559919288,0.0012007506613844674,-0.00045826201622122323
5.880795654296876,0.08743278950405442,-0.000739574865514326,0.24298737783530344,-0.004482660013067951,0.005909974547880007,0.0040477239203486285
5.900795654296876,0.07500563711087259,0.03735365030206356,0.21009929830129623,-0.004395797360482511,0.008637696222784883,0.004806137939916576
5.920795654296876,0.05712702027418323,0.023536105318464385,0.19765632802988545,-0.0052890150289598495,0.003349691877970309,0.007777509920086242
5.940795654296876,0.04880010919674187,0.05056666652762542,0.09307694694621482,-0.005385847660787262,0.0071625861350050396,0.006409381401987112
5.960795654296876,0.07811800676438864,0.013789462662939133,0.1046360874178762,-0.00820417365276759,0.006882046630299114,0.010730056137548365
5.980795654296876,0.05541114405756326,-0.009893204201332302,0.06864265639705346,-0.0038418026798307434,0.011130472569068352,0.006893711827099859
6.000795654296876,0.03999314777627966,-0.012259096510090642,0.0731534374536715,-0.009846915493385346,0.007540131684939543,0.0017588709309494083
6.020795654296876,0.07524930814511573,-0.012526507531051093,0.03694164622106448,-0.0037678795807544407,0.011818815380129676,0.010033582269598643
6.040795654296876,0.022814536678885337,-0.01916649111091459,0.0515342669884889,-0.005928726460923863,0.011415930856163842,0.00634401326488609
6.060795654296876,-0.005380729834512835,-0.008148740630616635,0.046965223467085204,-0.003803240363500793,0.01123042532569775,0.0027113474875553965
6.080795654296876,-0.04850210261941587,0.02207919354166558,0.05116727545200269,-0.003726192380792446,0.009332515915167088,0.006018090388881815
6.100795654296876,-0.06407373153384033,0.013355143951760746,0.018244486190718466,-0.0028063420958891463,0.010721318695864615,0.006449391830712255
6.120795654296876,-0.0955312079154545,0.003749250643890785,-0.02965581581174783,-0.0038178607667324824,0.008983075766388808,-0.00025111702321188454
6.140795654296876,-0.05694694083642775,0.01518871838671969,-0.027230048090179995,-0.006016069724446141,0.008931788008447752,0.0029878534834875494
6.1607956542968765,-0.08515440876388924,0.00842118465537114,-0.06366605412508367,-0.003275841393495382,0.009047799160236627,0.0020967665500993458
6.180795654296876,-0.11120002437597172,0.010743046722535121,-0.0635346508123618,-0.006629952372271588,0.0077797738322184454,-0.0021216387994577313
6.2007956542968765,-0.08348083225646033,0.030148136606128192,-0.08346335265833209,-0.003648714266991937,0.006977743686829621,0.001334076088555822
6.220795654296876,-0.06641149789155457,0.04286123247227802,-0.08082216966273179,-0.003449082495650613,0.005060084144606214,0.00014600236366455174
6.2407956542968765,-0.079535615952176,-0.01103571713183886,-0.0541329721579633,-0.004177675199052019,0.00991816972471217,-0.0008887733146611367
6.260795654296876,-0.053083537868498086,-0.004972498684683954,-0.0707468634236214,-0.002571560673814266,0.011276313056670687,-0.003128240980369516
6.280795654296877,-0.00821896002808606,-0.047969360873244604,-0.027110310156143944,-0.0030186135207393478,0.013613175746255068,0.0024645903787414276
6.300795654296876,0.000739864605402885,-0.08841504479667567,0.006101274206534868,0.0022639819004788395,0.011063128804843819,-0.0021724714477568473
6.320795654296877,0.03404836015239321,-0.1256855653978369,0.03594404488297893,0.0009186221893883834,0.010919488011081363,-0.0031330102380133324
6.340795654296876,0.06367250061714376,-0.11735990432333472,0.057758940233634,0.0067791842037224215,0.01981696676590517,-0.0008266416359282808
6.360795654296877,0.07312647868240464,-0.1255663183704496,0.14564041190206828,0.004320853931051307,0.016142905473567518,-0.003927123056737474
6.380795654296876,0.08935570369227525,-0.09811565471212098,0.182227528796022,0.007788864687670083,0.015474402722456005,-0.005060028336940456
6.400795654296876,0.07928823784086622,-0.04030722777845001,0.2135204213543935,0.008711518242625626,0.015039491063964789,-0.0025460792260830496
6.420795654296876,0.07202288552056235,-0.030224381700176935,0.2770765414778771,0.008127631841250727,0.01798654460549999,-0.0006744593448114254
6.440795654296876,0.0604175196186205,-0.020137818837641853,0.2744352870605144,0.007788239005667269,0.012749588315850283,-0.0033847860081544666
6.460795654296876,0.04216761638386244,-0.0023593776180984944,0.30009438512406506,0.004562993679814406,0.013364598726724611,-0.0008934416010749868
6.480795654296876,0.06001133078987567,-0.013984397996875994,0.27103705908336695,0.008710507230153219,0.01424007103721656,0.0024344901099125557
6.500795654296876,0.06601684434772043,-0.024218105516740883,0.3170008298669762,0.0026341341611228254,0.011606741505287796,3.886951080979037e-05
6.520795654296876,0.08685452561305164,-0.03232104566276414,0.3509887145669602,0.002837461401872129,0.015377694314950627,-0.0001887384567360324
6.540795654296876,0.1211186475770861,-0.0446643367646562,0.37203202116425305,0.0031620906971986953,0.007754594215437231,0.005766241228643333
6.560795654296876,0.10068968793883949,-0.09280583688436705,0.39328281057667097,0.002316844351349817,0.014316802608925506,0.009293037178421537
6.580795654296876,0.11057773925997187,-0.11792203798355944,0.4570394271485342,0.003920241752919482,0.011071194815091253,0.005900292656243873
6.600795654296876,0.08663105566466245,-0.12576729037389164,0.47261546282776296,0.006967037026991042,0.009372845225272564,0.007640779858616138
6.620795654296876,0.16009891346242086,-0.13155629146670367,0.5059418032966471,0.006617279959159548,0.01736198284886278,0.013963712914234523
6.640795654296876,0.10526063725888632,-0.21855119590482627,0.6640262254688334,0.011031159677122706,0.013679648234041728,0.004932227046837043
6.6607956542968765,0.08634788813322997,-0.23778034038396437,0.7478319670067287,0.014611053424828211,0.017895683298052398,0.004073215727082927
6.680795654296876,0.15847729949255895,-0.20091351795670728,0.8011276526852247,0.01608096342037107,0.0154826841256275,0.008299527376517268
6.7007956542968765,0.14224060620585732,-0.22125588751616718,0.9100704809914336,0.018451636710391912,0.0257815215653677,0.005471787872253753
6.720795654296876,0.152657470223641,-0.2074503551544961,1.0146241518745949,0.022034789799810505,0.016614412784437035,0.004770439467387855
6.7407956542968765,0.17499044398889593,-0.2005929998395751,1.0358784600027957,0.023356699952910207,0.01927083212257344,0.011112726031955433
6.760795654296876,0.07981597144245252,-0.20956289762234429,1.1446185627389298,0.019782363060376968,0.02577668810623665,0.004276471267016886
6.780795654296877,0.07374574980424117,-0.21084956296445287,1.2642056918320241,0.02389616392071249,0.0212688663297318,0.007959490004490205
6.800795654296876,0.061154533449418014,-0.2029430711401186,1.2798686134871453,0.025557534675755552,0.025087995353865238,0.013263235722450958
6.820795654296877,0.03393642425618425,-0.25399689745261467,1.4010171722111415,0.02045453734317677,0.028329174192580547,0.007041896324728648
6.840795654296876,-0.0051499563599500375,-0.22118852349070822,1.447450729197996,0.02423408366040766,0.025330385214051836,-0.0007631070683577401
6.860795654296877,0.03820131213768804,-0.17563986346594726,1.493033033858945,0.019449709693493376,0.026594559304579546,0.00926593231441267
6.880795654296876,-0.026381352791201986,-0.2066013687509428,1.5911313656718848,0.024393581081404093,0.02463237927640877,0.004726617870916743
6.900795654296877,-0.04911374552951073,-0.2216135589531115,1.637726729097607,0.01819126083770597,0.02649869756062808,-0.006727554591663083
6.920795654296876,0.009864094641156463,-0.20929283596413817,1.7205283934595401,0.019282899910615547,0.03292453516993248,0.003288076248317163
6.940795654296877,0.11369401510873535,-0.2441326871403778,1.785173502925843,0.02369152783249373,0.025297850735188546,0.00510602809003337
6.960795654296876,0.10153227931386917,-0.29504532142814144,1.8168117351607223,0.01845925190588024,0.0346745339745943,-0.008282057353295735
6.980795654296877,0.12607821181544906,-0.259539594347047,1.9269339370130114,0.02032985271683506,0.038673552893495534,-0.0049718518092918
7.000795654296876,0.23465844947032757,-0.24287737642170212,2.010471227234094,0.028088179875063003,0.02876890357062043,0.008685500755271467
7.020795654296876,0.22282737292478066,-0.3484690501120261,2.0864475399374376,0.023486691219149033,0.042624213259348766,0.0006204405382706961
7.040795654296876,0.32051104592017876,-0.33067016359696405,2.2208306847004065,0.024867365297606584,0.037617747650984815,-0.006066831742415162
7.060795654296876,0.3577934642738376,-0.2770452277754376,2.2811180686909203,0.03180374364262567,0.03563090598186764,0.004699359886212441
7.080795654296876,0.3089130374346673,-0.31669978205801363,2.3403858838131875,0.030195001248939052,0.04231484435361046,0.003917158957680202
7.100795654296876,0.43082022240674206,-0.317229082966091,2.466868593318855,0.035305851460474574,0.036644689593944124,0.0009386981901185206
7.120795654296876,0.45774072152385054,-0.26528884491252774,2.4836245375100576,0.03403837992819839,0.04520201122359955,0.0024972471323483156
7.140795654296876,0.36762829155011967,-0.2495979686589323,2.596602330191628,0.03214334813504331,0.043775506331650504,0.0022602457676770995
7.1607956542968765,0.4567510284255561,-0.2499389046125705,2.6117535375302174,0.036993009657797934,0.04173551198969749,0.00963247321323659
7.180795654296876,0.3570421303202752,-0.27934906079339983,2.596317114425145,0.0342147296452931,0.041476441677832245,-0.0003788913015738022
7.2007956542968765,0.44315200182510567,-0.25089252164395215,2.6316943980747785,0.030470056517955486,0.05719337161571255,0.006130940695432445
7.220795654296876,0.4109512300882175,-0.2526983964565539,2.6335859808249236,0.03891633446993366,0.04254517851840499,0.003575768138008404
7.2407956542968765,0.41774630255096373,-0.3422322466445758,2.666864451953805,0.02644181708101113,0.060920657283551685,0.006414352018908994
7.260795654296876,0.3607597870814785,-0.30642056652608307,2.595693447903644,0.039464623390551214,0.057375031315377675,-0.00797454054526544
7.280795654296877,0.3274612046753631,-0.3561750937439799,2.6995304580296073,0.018923077598893296,0.07533652607460711,0.004735551566689019
7.300795654296876,0.32683659079801897,-0.32492450748021845,2.6949237229513923,0.03678495292175203,0.06603714670606373,-0.008089772219909612
7.320795654296877,0.3116931551015366,-0.3746191432759053,2.684071056690928,0.019289858756039193,0.07275570579489755,0.000669899401912626
7.340795654296876,0.34016803215808583,-0.39575255269452836,2.6599509663807184,0.02574686547428918,0.0763093012128266,-0.0045247902322495814
7.360795654296877,0.3935943324837083,-0.36787465087876414,2.636504992790136,0.022178957448305264,0.07615242660573612,-0.0066607368582696
7.380795654296876,0.41790756279329927,-0.43596759053004813,2.624226125543499,0.02637453223328787,0.08307288645890076,0.008617004358829321
7.400795654296877,0.44775497798628894,-0.3983054877320645,2.5937659651697866,0.03054479422782584,0.07858352686195974,-0.011129086477176448
7.420795654296876,0.3611906776674873,-0.30105012948158705,2.5944369712323945,0.02623648133770664,0.07693431389707944,-0.020613852133587917
7.440795654296877,0.34741362710918067,-0.20742422765741977,2.629975467276983,0.031363984897977676,0.09761951176127594,0.0003405295251744028
7.460795654296876,0.36081766886892624,-0.1901649097207565,2.7455877342097033,0.031198830480708786,0.09153201456079153,-0.020848777380180497
7.480795654296877,0.4266630746461783,-0.13946553095956662,2.787939423394542,0.025447958308741202,0.1163272969635296,-0.02850036068349264
7.500795654296876,0.6762307349431875,-0.04421679368527429,2.879816632089025,0.03425618041175788,0.0910619642771279,-0.010256662415856066
7.520795654296877,0.6409642373334039,-0.02113031343521961,2.7862927917555402,0.03456466088391525,0.10546354854212021,-0.028575477993809478
7.540795654296876,0.6624935433420766,0.05652344972291186,2.8875268928513256,0.018375168137196807,0.1314200422369183,-0.03447212260295604
7.560795654296877,0.8611626501908146,0.15097177668185482,3.1276450346926725,0.0345671715228756,0.11790174396103313,-0.016646378052845166
7.580795654296876,0.8513398955541415,0.2611917094917856,3.184050981813829,0.019840039191986025,0.1343490193830964,-0.03505105918491584
7.600795654296877,0.8660901417556894,0.49912346861716367,3.400423723711278,0.01032387035631229,0.16115814218844857,-0.04481065025724533
7.620795654296876,0.9911941441800177,0.7149559242630532,3.674977184820896,0.013305409024469559,0.12881628302213435,-0.01629886248623384
7.640795654296877,1.290226483969788,0.7569645195683402,3.5054075681384824,0.003974607346581953,0.14311350073020332,-0.0010199266652615427
7.6607956542968765,1.245916803136612,0.7097138376031491,3.588974207953787,-0.015210482109364728,0.15515635778813294,-0.02528501868498996
7.680795654296876,1.4448898933832997,0.8592494943901559,3.7066005579444563,-0.02647414302194254,0.1571568336590989,-0.011650748875063881
7.7007956542968765,1.3546199084283619,1.022163955122963,3.728439375265274,-0.03412510191877194,0.14924192687939253,0.0010890457005356391
7.720795654296876,1.2211557465235072,0.9259795104390106,3.8005329629869338,-0.050570539968093055,0.15860248777508296,-0.0005114729475065684
7.7407956542968765,1.2623423092618828,0.8807424857737376,3.6410262420622694,-0.055621143133387986,0.1701055410989265,0.012823994451014458
7.760795654296876,1.6709674729319965,0.8850277974708741,3.384145484297968,-0.05804698657185255,0.14184077090807892,0.0340665025918746
7.780795654296877,1.958117579255946,0.6498886951789911,3.316021045548937,-0.09213512245683304,0.20015500769017328,0.0387869732190202
7.800795654296876,2.017497989072797,0.5603610772537034,3.6028351378204846,-0.08412490204532223,0.15897154233068747,0.026835880125381732
7.820795654296877,1.5813060839557336,0.5612938836691882,3.4650339345565584,-0.10609410375977017,0.13830590054638983,0.04454509217403304
7.840795654296876,0.6574486660252629,0.3176368875544546,3.458859240014366,-0.12564538811107082,0.186032757723758,0.026320036853370678
7.860795654296877,1.2169468084009616,0.1200082731383506,3.1207618862273008,-0.10687404652374292,0.14815543987206628,0.10052938883579902
7.880795654296876,1.0474256710854124,-0.5000393187568285,2.851256785015549,-0.13216199757033684,0.17684600822526955,0.05043913770306325
7.900795654296877,1.3948830973411273,-0.6191565645441209,2.450365225374402,-0.12955322150130621,0.17961302627022066,0.00591796962192906
7.920795654296876,2.1384520743537316,-0.6007747620742337,1.777251770334005,-0.10609160496134946,0.13584349653480432,0.12717839887420188
7.940795654296877,1.6879568818799287,-1.4490647312923943,1.4299577876212988,-0.09648702835953803,0.16296495688809587,0.12125180403176872
7.960795654296876,1.1612805079584403,-1.862843711590445,1.112319746886446,-0.10002898757882589,0.17916052448441347,0.007337791471554656
7.980795654296877,0.7112878203671538,-1.5137998560955443,1.0873516861562533,-0.0803968455656532,0.20108933010196606,0.052751956744581274
8.000795654296876,0.9131599904083655,-1.8138277405563803,1.2108878736828492,-0.04101988503453712,0.20319774973443114,0.1734915277176562
8.020795654296876,1.3299336598048186,-2.5835277684678375,1.0624140583622106,-0.03697794436113619,0.17961542607097558,0.0887607167495783
8.040795654296877,1.1028320698473948,-2.7371676165993155,0.9923566144904555,-0.053331740086244916,0.2061662252898905,-0.009292609233980965
8.060795654296877,0.694267501735114,-2.208800741117313,1.030712585628862,-0.012161718156771025,0.19650361214149176,0.06806678716926605
8.080795654296876,0.6447920687423465,-2.4479913704079967,0.8904373580924807,0.006770378740214628,0.18465982189373337,0.12072967883687198
8.100795654296876,0.9609307902260378,-2.7524759179353526,0.899065972531521,0.0004194644841653021,0.23654709813135455,0.03475324659028538
8.120795654296877,1.0349008293095803,-2.420445869990436,1.145440701794949,0.007120241535733721,0.20564950210255623,-0.009536985834613565
8.140795654296877,0.5656013697829911,-1.9117282311614126,1.1533513060972627,0.028804830901692915,0.2096200420113922,0.047716156561104756
8.160795654296876,0.6295455766203798,-1.7678263595658417,1.1561265585141556,0.034885479536605715,0.2244500498841819,0.053257632619760645
8.180795654296876,0.8510778810305033,-1.6073795428866444,1.1717989300786662,0.03802363355110787,0.22971680336797698,0.004904410101878376
8.200795654296877,0.9203710551341926,-1.1890415737966138,1.3662460197079151,0.02981329736113485,0.22858211360173805,0.0035574754454329757
8.220795654296877,0.9778754630213838,-0.6176855293908179,1.484449692616758,0.044034252604185316,0.22939880986153077,0.0037775117566207603
8.240795654296877,1.1357883892642124,-0.28832697983383837,1.615152080516344,0.024197315075707854,0.2622276520503084,0.032998537317834004
8.260795654296876,1.1429215117234701,-0.05611695076464922,1.8722105560703708,0.02993875567495797,0.23995044546592692,0.013776758543175656
8.280795654296877,1.163650718773329,0.26064342340825386,1.847569824944869,0.011035911000065493,0.21792144040534833,-0.0005272322803707286
8.300795654296877,0.9016342796024641,0.37746556195831327,1.5158925579301639,0.01630901111085271,0.23325650539005835,0.04305007437697678
8.320795654296877,1.0991454450902218,0.1511852886005495,1.5762375901482168,0.0030279537005734204,0.2574079143714582,0.0428619590922046
8.340795654296876,0.43578750604369876,0.3712238832527338,1.4205679103470399,0.007414640893997339,0.21537667838075703,-0.08443289692523216
8.360795654296876,0.2664826006657878,0.7945261905534107,0.8677511137713471,0.005887356281591737,0.24645928475566198,-0.008337334516771497
8.380795654296877,0.10011444346081237,0.5865781437373631,0.9103735874751743,0.039876791022987294,0.294367668124742,0.03600673876038487
8.400795654296877,0.3322999944241813,0.5655081891938348,1.0727961839592026,0.02516303698440969,0.2488248643722199,-0.13002202578338304
8.420795654296876,0.9155627797849215,1.4432314836677034,0.5925944888788037,0.04851398930733021,0.24893492835421957,-0.09664771367546825
8.440795654296876,1.311059928328965,1.3803841823643495,0.25463631250611324,0.11628027980829633,0.27875670510794964,0.07338695507412549
8.460795654296877,1.01139330443764,0.6391978534827297,0.35891128198827865,0.09381007919283452,0.28883782008373654,-0.09394215147343238
8.480795654296877,0.760561963681155,1.3768439193889173,0.9318467357766018,0.0889070813096122,0.29558591138530665,-0.20667735920826819
8.500795654296876,0.6895326745088016,2.254589818980036,0.8690336762770103,0.18202681985003757,0.23027656546770123,-0.013153048058968764
8.520795654296876,0.9676725097165769,1.6079292716626203,0.20425790378117212,0.20294192633862074,0.2588932509167169,0.04656123255999714
8.540795654296877,1.9005504919497638,0.7888599663362827,0.3997767956324634,0.17010915766421705,0.33649469492599576,-0.11939449046532362
8.560795654296877,2.4808756903547486,1.2814724699125146,1.1193254909496524,0.20242013329658556,0.284411251232923,-0.16930853974998006
8.580795654296876,2.597695643077911,1.8207072952775245,0.7065835111275041,0.24440740337999356,0.25341264144544084,0.0067228564241812285
8.600795654296876,3.699382088540541,0.4898289754603536,1.320914976406813,0.21402238322799036,0.3353857780153772,0.14910535948403864
8.620795654296877,2.6283003415193456,-0.08401052877433428,1.4828346914949078,0.2317574411831282,0.22800854475965762,-0.2051631674150868
8.640795654296877,2.376828177551054,0.7701759302442869,1.6162443069670687,0.11036936391915862,0.3862832263371062,-0.08867991018075344
8.660795654296876,2.7713422919092463,0.8884477328371273,1.7053759467609055,0.271238470695549,0.22341833892868637,0.15264956398865423
8.680795654296876,3.3796595742676088,-1.1839299163232713,2.6099108452398108,0.08435645528605511,0.3077892143518321,0.07244781519799089
8.700795654296877,3.7793934702681082,-0.9777630098166592,1.9404917281208067,0.13948221646434242,0.3514940655494955,-0.11334816564641369
8.720795654296877,4.053394604586148,-0.9002267983293893,2.8778251178235053,0.014350419974769466,0.3285208821611647,0.16791555223204643
8.740795654296877,4.776605398876491,-1.0589016891584293,2.141006787772965,0.11415760215780472,0.31850834335139655,0.24241439933330203
8.760795654296876,4.019424924477636,-2.4156925931409363,3.234898559388231,-0.09335920354891959,0.30847080852552616,0.09887396673965816
8.780795654296877,2.876378356484181,-1.6991328721666061,2.209992555011669,-0.005731738441341131,0.3093785316826258,0.0667074261232464
8.800795654296877,2.299551595214355,-1.666328482693738,2.472130316666714,-0.1346984832302272,0.2965692044815098,0.2736969367599468
8.820795654296877,1.9440291140661126,-2.036709247816604,1.659729637030954,-0.04868653460021069,0.3191564887582778,0.17911199115145648
8.840795654296876,0.8212461814464318,-2.4756546134649233,1.9020055956395392,-0.1980619553121768,0.31237579248741726,-0.0037573699892210566
8.860795654296878,0.49677170809471954,-1.333991391523449,1.1201347011984424,-0.09568495087845565,0.33883809635865875,0.07820349685427157
8.880795654296877,0.28988812434359584,-1.6024303923236785,1.3212150986942055,-0.14705423648660604,0.3074896966636461,0.16020824866004535
8.900795654296877,0.8066248291762754,-1.9449132943636858,0.7899284381304248,-0.11664498292371439,0.36239434544203825,-0.021798952476863958
8.920795654296876,1.4918163645631823,-1.5310852498215606,0.9459161993185554,-0.1489931183786983,0.2988063819834336,-0.031169888389416825
8.940795654296878,1.2280562386524787,-1.096485473764535,0.31185972316017724,-0.05818391875498573,0.34980794368463014,0.042609881712823865
8.960795654296877,2.017366262943536,-1.2259969766424468,0.9101722676225258,-0.1236780520803628,0.34362071856957865,0.03656642122296265
8.980795654296877,1.8467900352903521,-0.7546617190231302,0.7376840477020046,-0.02233414288176306,0.31741306840325045,-0.0789216984045326
9.000795654296876,1.8610279316481146,-0.1987612009051555,0.8326422137344041,-0.08750802580737951,0.36770952418934355,0.04741046294125055
9.020795654296876,1.580136383773293,-0.10935270942769416,1.0936125680197168,0.024663818557665577,0.34695695624892015,0.062373463604842756
9.040795654296877,1.9343654208598184,-0.08029101930296458,1.1618480677898932,-0.03622955702129063,0.3467394598803637,-0.002963335921339535
9.060795654296877,1.3719420095011696,0.48006199071744105,0.6352050980462918,0.03905556742478706,0.34087985598713316,-0.06626804930355044
9.080795654296876,1.3791501170190938,0.7680785801689823,0.834944552947635,0.016225059235255315,0.41285158696816815,0.06584803707682918
9.100795654296876,2.19776746450709,0.49138828393036527,1.3187840830948434,0.08594206840289229,0.3884606234751271,0.052796015324650544
9.120795654296877,2.147246888357307,0.35012296071940935,1.3391431375850644,0.02782880548414399,0.3975249627637983,-0.10956535559052162
9.140795654296877,1.9805905037477889,1.0754512784460288,1.2525148731680873,0.05888708280572481,0.4143960305428913,-0.04028619421360367
9.160795654296876,2.4111349852848707,0.9240995175089654,1.8520667664162287,0.07589189262809046,0.44198421765430457,0.07927751866944893
9.180795654296876,3.049164172175442,0.9586405058930846,1.4501985877652392,0.08935318006485642,0.38376351304572487,-0.055709520767062995
9.200795654296877,3.402782957033486,1.0851294104716525,1.3216693732060292,0.03385067246032057,0.4371834876196229,-0.025605349040994988
9.220795654296877,2.70042541498449,1.0898505823584355,1.7453040803377389,0.10359120557419396,0.40036819143269653,0.05390178329097066
9.240795654296877,3.1240614461896037,0.6764040910357615,1.8528040067465188,0.05618732352594819,0.38648211697919077,0.04896215009306004
9.260795654296876,3.781914160210839,0.42632566368265906,1.3851932773225804,0.05571641819709291,0.46960461551888366,0.02648483402530777
9.280795654296877,3.5031717172445695,0.4558392252830255,2.0100965638349124,0.03185583563797259,0.35980058724504765,0.03649894752097134
9.300795654296877,3.046157859778239,0.5010486889391819,1.67909666773903,0.042049830963207684,0.4236822148258027,0.05014927883095302
9.320795654296877,2.686692827713354,0.18166576141453222,2.0328190220353424,-0.0035167183703762035,0.39625537100326963,0.05683620861961394
9.340795654296876,3.0860286877399705,0.2037477871664954,1.7850814175117862,0.02180834175012504,0.36790252580919314,0.048127466872653304
9.360795654296878,3.824087158838837,0.09193989520785545,1.0176300029159533,-0.007137262999880231,0.3769360552703557,0.09562817198930966
9.380795654296877,2.99833428433933,-0.5437458942092692,1.3385340212784353,-0.019208854748353918,0.4029375233006574,0.04859857921878072
9.400795654296877,3.0872267204363837,-0.2666737628885735,1.0998330442664332,-0.013188606012233147,0.3629873824949912,0.028839705171603208
9.420795654296876,2.913340707091997,-0.24129351265727253,0.9751147609469618,-0.03516257002452286,0.382140502068987,0.08505545442630397
9.440795654296878,2.4814416981722394,-0.6294735559238264,1.0702602707702493,-0.023708125051063643,0.4326179695969991,0.05368024420496593
9.460795654296877,2.9525684790443965,-0.49940710677018707,0.8635218629870476,-0.03884264811737112,0.3628026929237938,0.04837775625637571
9.480795654296877,2.9980933886821677,-0.5000027038862553,0.7975845343453946,-0.029034654339156,0.41815404168764647,0.07487813091278438
9.500795654296876,2.788407669454729,-0.36437358396864333,0.6293395638758713,-0.02793985365921753,0.3792729204980071,0.04191449713917167
9.520795654296878,2.7606438933390254,-0.5044992814843476,0.6646927992817853,-0.03946103448156084,0.4210452062861092,0.07010875294444471
9.540795654296877,2.4703225360989776,-0.1900847403919474,0.35481394085136214,-0.003406525182899381,0.3966310768816523,0.04178063873374736
9.560795654296877,2.8222449929818167,-0.2914569769807247,0.8413548281978923,-0.051669451774894064,0.465276060962641,0.09091173729356349
9.580795654296876,2.3857689982909607,-0.19694301452755875,0.34162872807369055,0.03953509439275379,0.34898997707336404,0.03065087691499962
9.600795654296876,2.7106920328288577,-0.5573992375030855,0.15039988304156934,-0.04891144463039062,0.4456984854017459,0.08957057915880764
9.620795654296877,2.342977798155822,-0.41435431601435424,0.27552251974318853,0.04079265677009846,0.453679138635375,0.02082434454416098
9.640795654296877,2.385984014719982,-0.3944264004256177,0.9347047160070425,-0.03267776052492054,0.40925713949799025,0.04086710769777274
9.660795654296876,2.577638111518041,-0.11217339947745461,0.4717688640852836,0.05068074275102626,0.45599188741194235,0.07338189167513622
9.680795654296876,3.1498670670977114,-0.4780687901070974,0.8105785958951642,-0.008509736995222327,0.37183245511958907,0.07851743974780419
9.700795654296877,2.863368956465885,-0.4162753338692177,0.3832331955322564,0.03263702683710602,0.4603926141840598,0.007174080236189925
9.720795654296877,2.9477603530387015,-0.10042303625011016,0.9806294029687335,-0.0200267076654626,0.42226246060140515,0.04289076299596544
9.740795654296877,3.201487860435223,-0.0006845321220798788,0.6228366291565958,0.05583692189869773,0.40071549890742586,0.10811292918112295
9.760795654296876,3.3898376209827465,-0.3858108618508939,0.6666354807683197,-0.011360917788250007,0.45000007393591884,0.08096966977551422
9.780795654296877,3.1606241208691492,-0.44238327406484024,0.8621312408581051,0.013425316843465616,0.4071494189402656,-0.0018754381332704104
9.800795654296877,3.0195421801523876,0.1294382959463771,0.7206951266353349,0.004033325817506122,0.3907938868987034,0.06304514247009987
9.820795654296877,2.671609204388267,-0.13053148494832262,0.48199394157986425,0.038412507999259715,0.41030949223306373,0.13511127781900067
9.840795654296876,2.8029477972051233,-0.7182485148904918,0.6997351012932507,-0.005996550244902988,0.433277179694439,0.017342889238261307
9.860795654296878,2.89538883794078,-0.07382188917856683,0.6265598213859873,0.0069491613408454184,0.44257398892078265,-0.014398840543017195
9.880795654296877,2.582018481757747,0.21257910543309524,1.0336390036862597,0.013404770060652174,0.4055307335528553,0.09068430003309079
9.900795654296877,2.4740819552732187,0.010104553970933879,0.46176922644347534,0.04860444925433796,0.39096760344859977,0.058160057855458996
9.920795654296876,2.6994810142680032,-0.5675499397978016,0.9904908409519824,-0.03824621770536318,0.50835932740564,0.03532019596501636
9.940795654296878,2.563351180936495,-0.07424673597748806,1.281128688005853,0.04793755300760171,0.36360302890599955,-0.025074348895204865
9.960795654296877,2.1489474550560144,0.21955315883183288,0.9988892719296726,-0.02951208005884981,0.4346290851234821,0.03854953461168993
9.980795654296877,2.9412753575101283,0.2877997664955794,0.9426863904226839,0.024855746732157166,0.45266310039240454,0.06076756759561451
10.000795654296876,2.673740432858073,-0.0929539100363523,1.380693275952398,-0.020177438178632504,0.384249603502757,0.0068606807004248935
10.020795654296878,2.3809965089617835,0.3785922549812287,0.7774792067669739,0.0036619389771402684,0.4530175816575405,-0.03891745025819388
10.040795654296877,3.4788382999939405,0.5419680773026903,1.1333067509886763,-0.021053293568405188,0.4098970253780104,0.11621288496919123
10.060795654296877,3.0004947180805197,-0.013672217065841579,1.0104901335220593,0.04409952763976764,0.38921404101953566,0.06862823119991611
10.080795654296876,2.7333703601849253,0.00911114268287394,0.5917139895872873,-0.03587580271449094,0.43021399497496565,-0.0399774388156803
10.100795654296878,2.805494116648649,0.20976552690125555,1.1427645117792449,-0.0018848932800411707,0.43077163093153487,0.07912631852546054
10.120795654296877,2.7092852154620535,-0.2429457459399599,0.6866440071140684,0.05073047825339967,0.3566350370150088,0.10358251521094702
10.140795654296877,2.4831085612947272,-0.831499614035708,0.7555397611656128,-0.05614801917436519,0.4530741789953372,-0.043091393492286745
10.160795654296876,2.38528615309851,0.19849914360327214,1.0117804296052781,0.02247022068772814,0.4267129773197949,-0.07032994697897853
10.180795654296878,2.952244631436858,0.34324651109961507,1.0509279912709117,0.006971390804155143,0.3860263116303247,0.16013070829339182
10.200795654296877,3.2362019432695637,-0.36457167633792337,0.9170139315041709,0.03166371574982873,0.423062947594796,0.0509131060636077
10.220795654296877,3.197808183344413,-0.4261657430189583,1.4020622570665835,-0.04265248864068824,0.37485056596334465,-0.0848494666837422
10.240795654296877,2.9860803442911097,0.2834452053215199,0.895085626039143,0.036485571343331205,0.38736109436943544,0.06809242117038593
10.260795654296876,3.0946794938400197,-0.26896420741893423,1.2158421995515514,-0.015511085267871767,0.42862888678886646,0.14524201681270532
10.280795654296877,3.758287666816413,-0.436557615419837,1.0586274462788319,0.011473051760710232,0.38252025420501884,-0.02470568582024587
10.300795654296877,3.3218461743457666,-0.252209374486599,1.092329394498219,-0.04038178204250371,0.373841721904391,0.019198674396177822
10.320795654296877,2.564339523435327,0.05554916393512274,1.0050101899829467,0.02357565936226307,0.40349447385388615,0.0974272488723812
10.340795654296876,3.424850990760742,-0.21209615475411833,1.2371813249904033,-0.026584399082364502,0.40257123948403434,0.09831306003385361
10.360795654296878,2.945347460137506,-0.3496362824758997,1.5407592314426188,-0.01653084072316026,0.40039562598689565,0.018967035903828366
10.380795654296877,2.929450839814833,0.35052008425835146,1.2742705586796041,-0.012994486120022105,0.3230660334989656,0.04147317127127482
10.400795654296877,2.761585261506674,0.27824624852829244,1.190365845241616,-0.02775098701782298,0.41658490172855767,0.12972807954533663
10.420795654296876,2.5668223400198564,0.006894764855937678,1.066382939561297,0.009672603728655397,0.33026892034644617,0.05400797611574028
10.440795654296878,2.2137930620953337,-0.20863942203332894,0.9461875432311239,-0.04588726645264354,0.4005091840412709,0.0421549560739219
10.460795654296877,1.9488234301883947,0.23158343863933858,0.9152772099315132,0.014376499998700828,0.3833641281132065,0.03335356419037795
10.480795654296877,2.20889745158793,-0.21190651492568494,1.222535819097042,-0.013141584133983166,0.3466659604135155,0.12006956371200614
10.500795654296876,1.521622515736697,-0.4557947092210227,0.705421163516427,0.02914667330546631,0.36523081425682685,-0.011336081783440803
10.520795654296878,2.34365634276278,-0.19841617197212263,1.155675576883691,-0.04492794811791123,0.37220383871934803,-0.0019309112298084214
10.540795654296877,2.0731162642357015,0.2327046629756096,1.2986406032921518,0.05316304216596018,0.37138027644689686,0.06303341039699936
10.560795654296877,1.8599518264247716,-0.2819069665033919,1.7178339824216218,-0.01718001097344622,0.2642371887035479,0.06965530779683224
10.580795654296876,1.635505916620023,-0.41214573424215845,1.0926351229680566,0.02460678793432892,0.38593227642706446,-0.028124266925062424
10.600795654296878,1.7878053103034415,-0.012866301109529667,1.699783097900353,-0.03740565274124637,0.3045236895720964,-0.0014714721786588149
10.620795654296877,1.8653578412515937,0.0007422159996911926,1.4966160271774203,0.0403652836681062,0.3337798063288311,0.06291082793128967
10.640795654296877,2.341479845826197,-0.21740097930891888,1.1473005435199157,-0.010536230033861994,0.27102188921778286,0.030863716869045266
10.660795654296876,2.2005052683978037,-0.529692159048484,1.141734143137161,0.00530918944244941,0.34901193217149057,-0.01690664666264879
10.680795654296878,2.5391309658907026,-0.15452190677820582,1.3807828741720845,-0.0016430051905575135,0.2945342502419577,0.022583427909038622
10.700795654296877,2.2353298283791814,-0.30288607929591216,1.3496084088404408,0.025690565290069585,0.3136565857693605,0.06841648712354625
10.720795654296877,2.0862026041873047,-0.3706332296934218,1.5595052640391456,-0.014804052734956377,0.3370402339748343,0.0025725612179097333
10.740795654296877,2.7647945690032905,-0.17486589413485062,1.6536025041629754,0.006677694724033376,0.27320861668105284,0.019683644636509387
10.760795654296878,2.2180826235368154,-0.025153805558811963,1.2773763671108207,0.006861833015260935,0.30027538118430747,0.042324258806645074
10.780795654296877,1.9614277249926004,-0.15727242156245236,1.8091875450768111,-0.017613191176715042,0.30228672216537084,0.027253038031232545
10.800795654296877,2.616193516856873,-0.0019946164958920378,1.2675926406417772,0.027627069905108638,0.2926710816121741,0.03099390190678091
10.820795654296877,2.4588286607196665,-0.08495342438001434,1.3987269630497559,-0.01928189864760684,0.28646434592319553,0.051235267396879794
10.840795654296878,2.8127894505254702,-0.003804318287304565,1.2354933442848501,0.03899294425975551,0.31485311992568654,0.05581931061971706
10.860795654296878,3.073572272147579,-0.1382368159949915,1.5005659934355517,-0.00696785246049522,0.25561740301559543,0.07627186047712003
10.880795654296877,2.207371280633827,-0.33762675726735414,1.2475890202976505,0.03946286058441695,0.2742600063085368,0.025606874092395815
10.900795654296877,2.471061153168921,-0.05940760053679683,1.4922434217610876,-0.014410315428075382,0.2969997734839058,0.04541097917368263
10.920795654296876,1.8183859718248483,-0.03336031746537225,1.9115572726229222,0.03477592108938395,0.2649445694367776,0.03001640754938392
10.940795654296878,1.712359371488262,-0.11422408334393284,1.4634174538609523,0.014628610292591092,0.2744818473944982,0.06194295555768602
10.960795654296877,2.340774971437072,-0.4331662379452983,1.581763566048268,0.006953558428316722,0.30335496134506024,0.05617855992240776
10.980795654296877,2.701384185539184,-0.25525555645932785,1.5302904165889324,0.024323230206407545,0.23853515561642952,-0.017765893445723522
11.000795654296876,2.2885603154921648,-0.2166747694627983,1.4708207759138099,0.0030167873051521,0.267704834242497,0.05754829391340915
11.020795654296878,2.2172225040684346,-0.5067136916633455,1.7196792507141208,0.02417316910214344,0.31122836240367846,0.08089007059395283
11.040795654296877,2.211492208401479,-0.5142258903236085,1.985294538587154,-0.0031852258656930774,0.24548130334167698,-0.0162749622973142
11.060795654296877,2.160515145430178,0.025093415613529593,1.7248216406889632,-0.0008011663569329509,0.2801213631287246,0.03945960139946454
11.080795654296876,1.754227046675798,-0.013753121015602969,2.0923860527623006,0.008325237154307505,0.2624138781059261,0.0984410804907748
11.100795654296878,2.1777902771158533,-0.017484882770775142,1.6125345885244917,0.015396291150898706,0.2008874505551273,0.043683726344899955
11.120795654296877,1.670089349982078,0.0016827633924736919,1.5798845875996794,-0.029512834787387997,0.3054780155278809,0.019914819018563377
11.140795654296877,2.0633685768823673,0.09424878162338562,1.738296659621836,0.022020290574368422,0.177154647174097,0.06351576015343953
11.160795654296876,1.426796276075513,-0.19100890679400573,1.3000089866522762,-0.0017638478203438927,0.2576709635744131,0.03131932738496161
11.180795654296878,1.314060818018122,-0.17560183697557027,1.8771713207461818,-0.02492220787589421,0.25262031172616684,-0.024443286860824646
11.200795654296877,2.2557802961165248,0.11218220974348869,1.7826715344146045,0.034791254051244426,0.214808649002527,0.0934508174362291
11.220795654296877,2.0320620911890463,-0.3500922799269772,1.5080257681265916,-0.0030944295368610527,0.20024466081486222,0.06821761734482465
11.240795654296877,1.4434528652615572,-0.5869720729993937,1.8179508812187941,-0.015755908153305027,0.27636287825624817,-0.04715910216910615
11.260795654296878,1.971217491055742,0.168858804852887,1.5499606931286276,0.012623444822014506,0.16491347110789886,0.054487463664979655
11.280795654296877,1.8458123247529057,-0.27142325681875024,1.4718806964842042,0.0179561335417122,0.2412465086084323,0.12945769965909104
11.300795654296877,1.3845411531577074,-0.7229592064781216,1.866450188134638,-0.011988043225154968,0.18329034886878184,-0.05172937903793923
11.320795654296877,1.2918691738793049,-0.2798289450374943,1.7541348222518376,-0.010340059288155274,0.2617076237459258,-0.0010258281463487319
11.340795654296878,1.4113087310457382,-0.06479854887669968,1.9315946458064241,0.0033121568090544776,0.17524686912549542,0.07428226358079967
11.360795654296878,1.50846509921043,-0.5265459338893108,1.6962755636198532,-0.002644890547365239,0.26022156009980557,0.007824712662521723
11.380795654296877,2.2573644746875496,-0.21046946335704178,1.6775484621585275,-0.031037447852051436,0.18173917399672404,-0.013028803172533496
11.400795654296877,1.8818529003603364,-0.11106248973126193,1.734920234267257,0.009753512601819456,0.21117690978739084,0.030010891801315814
11.420795654296878,1.432150010637644,-0.17672283988712484,1.4635876281699145,-0.015847296815235907,0.1903673042991885,0.02542148010988439
11.440795654296878,1.4586380884125179,-0.4296412044639107,1.457892631395592,0.0014538941836010825,0.20239286689527647,-0.0015919133275070203
11.460795654296877,1.6550347596581234,-0.04103277414628238,1.3585751510334885,-0.004360396939066905,0.20341422512162477,-0.0018477717930078614
11.480795654296877,1.6428718519849876,-0.06204155627149227,1.5359093197103517,0.020425438079393853,0.19577784863453412,0.034506667091135666
11.500795654296876,1.3015701855592472,-0.24710513638499765,1.3860973505240328,0.011385097972536392,0.17114839404049412,0.0044893300179447
11.520795654296878,2.0407341572764928,-0.15077956837631132,1.5424887740255722,0.0019519325419667037,0.2356677008125981,-0.024694958040841597
11.540795654296877,1.8209387216020247,0.027981281300708576,1.7547593131321888,0.008671475211753389,0.1893624086679407,0.013664674134616316
11.560795654296877,1.463978513699211,-0.5135276379386886,1.6255982699851284,0.027901900889613362,0.19588068045723006,0.04532999504481513
11.580795654296876,1.4778049005295624,-0.38373959571176947,1.4313875911218719,-0.006931676688313071,0.20214487315631594,-0.02293990113189402
11.600795654296878,1.5240762030849275,-0.19272610651646452,2.1158985702024107,0.004925928961136549,0.1765688989976304,-0.009341667770090305
11.620795654296877,1.4461885871645894,0.0031012890123108348,1.5773078076073441,0.03158857672780688,0.14786746842867615,0.0702483647986943
11.640795654296877,1.446407421711996,-0.557068233131747,1.7743202056829608,-0.00945607256071767,0.17565403789369682,0.03248807209049149
11.660795654296876,0.9941878967068162,-0.3436561433206007,1.4078793311065838,0.011598645620621661,0.1642464387857813,-0.08066245738314216
11.680795654296878,0.9928801573211514,-0.10486121488963152,1.7686682107545566,-0.013123270329359091,0.13950840135716108,0.05477192568223646
11.700795654296877,1.5646633003919217,-0.16733883033357622,1.4510188231033023,0.05451784390882217,0.15309862143882016,0.06930169406820169
11.720795654296877,1.0471805041394897,-0.5320579352920275,1.8771393989455958,-0.04286991437582236,0.13017495020921285,-0.07616243734918944
11.740795654296877,0.9678400694638811,0.0824255385917015,1.3248684197222105,0.037588136863643644,0.13303093674383046,-1.6852596516351523e-05
11.760795654296878,0.7962878034943172,-0.13398104430130436,1.765655681192793,0.0001372690971251167,0.10930992857504776,0.09625813633085321
11.780795654296877,1.2718182438049308,-0.32329218754122824,1.6029493728042903,0.01994217488638957,0.1697170963105112,-0.029479662160450237
11.800795654296877,1.3350012734596732,-0.14792963139869433,1.9696682357878876,-0.026080718831476838,0.08096208338338357,-0.030906300738274918
11.820795654296877,0.9668944674808333,0.05769988279692172,1.4694750168585677,0.036334237282800504,0.12841070986842268,0.0709224438082372
11.840795654296878,1.3170351355756198,-0.3520533338946621,1.6937816737888935,-0.014268320144849909,0.08913151805099233,0.049645718391965306
11.860795654296878,0.8789145013178455,-0.3411474427246915,1.388771086932,0.014318950884555334,0.09765064737336611,-0.02278178067322481
11.880795654296877,0.8230506043699898,-0.16057823333735527,1.8544500187710071,-0.021640302707547715,0.08487500320382621,0.04301311323110496
11.900795654296877,1.0792522779383074,0.01967664391997879,1.4662035597340024,0.037375032641991934,0.10403663451296788,0.0663450624475012
11.920795654296878,1.0965046027052252,-0.14728805522218277,1.5931438738087833,-0.027978091448477262,0.07911830217991161,0.038764027972046484
11.940795654296878,0.7402444662855142,-0.08742005669738598,1.6615133569148761,0.022489114913975185,0.059914175407311324,0.020774342325900755
11.960795654296877,0.679579804566063,-0.048967176032273366,1.5546607058732613,-0.013138625950146634,0.0911204579067612,0.0786963948462181
11.980795654296877,0.5390519768793501,-0.1336154684577369,1.6924283975528271,0.008361631127339756,0.05489136137460575,0.03049375050802662
12.000795654296878,0.25298858204258856,-0.09954304550106524,1.6702641439661818,-0.016726999391963267,0.059113184613679357,0.02149788252244649
12.020795654296878,0.5080021126672452,0.10810709202242283,1.2952371072967745,0.014015405896368656,0.059405955140570406,0.05428348073640285
12.040795654296877,0.6005303071301066,-0.22304042491261616,1.613571503575297,-0.025144608292724146,0.08188943935944651,0.06458653120847649
12.060795654296877,0.6650063786037979,-0.07156886266120957,1.5824309147563869,0.009834652775881872,0.016507409588244114,0.0020861279801205274
12.080795654296878,0.26412837369256403,-0.12374256967547748,1.5448027866550278,-0.02237937776689695,0.021923725006645134,0.07135240226479153
12.100795654296878,0.3846610524269438,-0.16041571737415752,1.1533282587794853,0.018255298116450006,0.04920968649023543,0.08299884732957989
12.120795654296877,0.08755458898840761,-0.3394443875046204,1.706824950848316,-0.03615016277006191,0.04580098938407898,0.032080767668487484
12.140795654296877,0.004838044396336172,-0.11524832760341189,1.329386182191514,0.02267808675940351,0.0030136733013360127,0.06479439827433073
12.160795654296876,-0.16076079198770296,-0.4135522951475546,1.3236350901244982,-0.019433640136710197,-0.0009243234411939991,0.10009353297861573
12.180795654296878,-0.3614427932540286,-0.39657009125934367,1.1500112363214734,0.011098672553514963,0.012254480310401916,0.0025617452997558398
12.200795654296877,-0.05782128602329225,-0.16819228926551041,1.4026240424359973,-0.02792400196902764,0.018076484683678302,0.06107480637105794
12.220795654296877,-0.33392915315166966,-0.09017541559402223,1.2003522699635434,0.03916375297252544,-0.016345237908340044,0.06948152891246624
12.240795654296877,-0.6863228871905471,-0.454890993911526,1.2754527014567674,-0.0267130002152795,0.0118889505489666,0.020947374442018336
12.260795654296878,-0.5229582331696023,-0.1430192052083989,1.2229243544360078,0.017277579375952725,0.04707906834701852,-0.004874959626540632
12.280795654296877,0.262270743686468,0.011214363483564102,1.3870749461780965,0.004536943259396997,-0.042609355624501105,0.07976179903490499
12.300795654296877,-0.4022170390423509,-0.37112498151390155,1.1652471418823587,0.026556784149194705,0.04194577974323016,0.011889015905861696
12.320795654296877,-0.3696290096701073,-0.3382482572796128,1.4393939582638065,-0.01827352720105591,-0.019527178582784934,-0.032911049848490734
12.340795654296878,-0.2119765119462354,0.016028538365193686,1.1373525413885952,0.042097487296024264,0.02119224535120925,0.04376451689174297
12.360795654296878,-0.11941950014336702,-0.27181246890972294,1.3731365188005182,-0.000595035147375389,0.009934655072811533,0.03754169585500342
12.380795654296877,-0.1421433561051837,-0.41315482902418554,1.4403112029816953,0.014558131819513404,0.026521410729355887,-0.039018188400999916
12.400795654296877,0.3763250074955426,0.07820460572187954,1.2993540844023976,0.004793185492204687,-0.031423920828540126,0.009296440490441859
12.420795654296878,0.07668127003018281,-0.02889225405906898,1.2361892960845722,0.02081973278866987,0.034392121926886204,0.056145830843641456
12.440795654296878,0.33159987444243455,-0.3740223228534456,1.6212938222816633,-0.00023949820876324605,-0.017415734039125018,0.018298814496908525
12.460795654296877,-0.20736973766146627,-0.2263050492034481,1.2900075784344016,0.00959265239858355,-0.008202283950544316,-0.0348484107614914
12.480795654296877,-0.43554258470193447,0.023036009888883855,1.3220490678117423,-0.009595421849511702,0.006932561901635464,0.03878532254878403
12.500795654296878,-0.34117023793367457,-0.1698514206797133,1.4337923342307202,0.02998073002620446,-0.0006966489573005107,0.03785023171629448
12.520795654296878,-0.0532386208362493,-0.3582016731766541,1.3914032555642182,-0.023984547397871134,0.013998968757084456,-0.011207148576381403
12.540795654296877,-0.04694666823804736,-0.10796524540891998,1.3969995746857995,0.00402161235770028,0.007103478815172782,-0.036098017983237585
12.560795654296877,-0.05381892132545805,0.031416026086135126,1.3557819792207644,-0.00635942211864276,-0.027479374251299173,0.0389552872197429
12.580795654296878,-0.14603716194304311,-0.31215355633357433,1.2808136509199224,0.015308547424826987,0.006711504283746123,0.033267026235783176
12.600795654296878,-0.1108638849153877,-0.4623492652814338,1.2815373772222953,-0.0240078777966302,0.0024523904745572763,-0.038602744571269054
12.620795654296877,0.011252199488604104,-0.1579702636445602,1.2402497366388163,0.0023154930410277568,-0.011526412265899547,-0.021818961306562218
12.640795654296877,0.014104226433380966,-0.1368423533607374,1.1157191796888706,-0.0020309428134680056,0.0023109782935361715,0.028344465728441532
12.660795654296878,0.4358216793843858,-0.2574774518251925,1.1267472346262197,0.003102437091150356,0.013233241694436385,-0.002669224762371584
12.680795654296878,0.28811945280458706,-0.22163186388859069,1.0422511340493987,0.0034442965912291194,-0.015163617707249359,-0.024089893395975205
12.700795654296877,0.044356126254034275,-0.056627569582862344,0.8967086309833057,0.0035042699721911158,0.04869665230814313,-0.0051196771399576405
12.720795654296877,0.311232395341568,0.0039329461964819285,1.2987875729395644,0.005593361963710632,0.0063756132677380145,0.009340038996460806
12.740795654296878,0.420885869300782,-0.06481416166908091,1.2164490668964028,0.02193314424121102,0.012257841196386303,-0.011750666016989179
12.760795654296878,0.0918856823450438,-0.07385831409209827,1.2919489170617837,-0.008999158791414585,0.019969871949494664,-0.013070583903959687
12.780795654296877,0.35457017072680813,-0.1761726182337111,1.2699878317047169,0.024458795585768404,0.03194848201380974,0.020733707938900503
12.800795654296877,0.12866717724274446,-0.2515084840661787,1.230760418120769,0.002228149391772199,0.005260401423871879,-0.006084805959268967
12.820795654296877,0.3047643924342478,-0.14288658107493715,1.185182887622931,0.007991920974097273,0.035552677626413696,-0.00940578307075468
12.840795654296878,0.1656455988746025,-0.12902700590773114,1.3440481556161563,0.011812805625174986,0.0039007918296776376,0.018497117417963095
12.860795654296878,-0.1700558138763547,-0.37957583211147344,1.2733987018367525,0.010375097384587547,0.01027507202336805,-0.019750497829143055
12.880795654296877,0.2130437854197411,-0.06354119934830671,1.196528114862123,-0.008292555563676847,0.0607334142971854,-0.013353007740890538
12.900795654296877,0.4407291597549701,-0.12304315490997066,1.4649808465459384,0.019496902648661357,-0.013169880178265715,0.025272518622037783
12.920795654296878,0.1908344087121229,-0.270921663541082,0.8970235726163697,0.01191988089403283,0.005523940500596851,-0.015726107081138644
12.940795654296878,0.45410154551885695,-0.24141598333431824,1.0530090656667053,-0.013911732450207107,0.04259812306192793,-0.01591313950060361
12.960795654296877,0.0028859054481050654,-0.2253220045705388,1.4759710453781074,0.02005820095914798,-0.020104247793740294,-0.009058819426766604
12.980795654296877,0.5462421876050585,-0.11346394735457296,0.9339723763971524,0.012639037291291339,0.03197019035510373,0.037109589233994225
13.000795654296878,0.5643141785451605,-0.3115237237186956,1.3192778084622883,-0.012508913877113427,-0.005811708151687096,-0.018702671823183442
13.020795654296878,-0.12065667436695265,-0.23323020415117207,1.2374586905620588,0.018228395539075137,0.025541107397260305,-0.031077173507798195
13.040795654296877,0.31277161111823093,-0.08662213366850548,1.151784251325861,-0.005372940974514043,0.010737363166006791,0.06532201930389474
13.060795654296877,0.09495690341504803,-0.3987252414025999,1.402992331733866,0.015895419442111838,0.016851410575144016,-0.003312971327424914
13.080795654296878,0.1992350326659549,-0.11907298164520422,1.078609371197862,-0.013333037877583236,-0.004917302482065278,-0.043160822090209855
13.100795654296878,0.5767998392976519,0.10133071102333169,1.1417919677994872,0.008133861663444257,0.04605480509988971,0.06099396223708174
13.120795654296877,0.28891496947423706,-0.17882019013649864,1.2949042334061696,0.006627758093532001,-0.04284091265349758,0.01399303134708686
13.140795654296877,-0.2039755973215005,-0.3552876357237196,0.9373477766855436,-0.006219883445106171,0.03616781571436572,-0.041803644577094685
13.160795654296878,0.21168177528357776,0.0626270031985691,1.0025471947733697,-0.00516698693164933,0.03735554330557106,0.026222187648052807
13.180795654296878,0.30504504621692724,-0.3116593451351841,1.4010396048413853,0.0148609636242182,0.030663327452999007,0.05327825698121352
13.200795654296877,0.09641909175431773,-0.27442282361554365,0.9642263800574471,-0.0024147659027900776,-0.010205916329113355,-0.06446102284163911
13.220795654296877,0.30068142414021576,-0.052166702060970266,1.1516035151670982,-0.025463201761138764,0.060835335065543124,0.004903764373433585
13.240795654296878,0.2569802783593408,0.16097867820514192,1.1720368976036641,0.03885325537083072,-0.02804198466795173,0.05264389745277258
13.260795654296878,-0.10365367331550851,-0.4310965972795361,1.3077547838570287,-0.02921458364263569,0.028861118513724856,-0.00591470419763636
13.280795654296877,0.19833553671519313,-0.03805181709306665,0.9553206559962243,9.927301387780504e-05,0.04271319610458441,-0.06009127255841942
13.300795654296877,0.0657116082693165,0.06918318139648326,1.3512703810318067,-0.006244952113655935,-0.03632973289679995,0.040273479097834304
13.320795654296878,0.27789079525900007,-0.10126325929543163,0.8211090961813565,0.020185081058108175,0.04590060218759681,0.043066775338537644
13.340795654296878,0.3983814335482799,-0.21492400046813123,1.262149289989585,-0.02735609056649662,0.003889793505485442,-0.04849930272996147
13.360795654296878,0.033587816981480396,0.1953433375359643,0.7703180781889539,0.020399908271739643,0.013247293594937776,-0.0067525816007936975
13.380795654296877,-0.0955788101447878,0.026068749753838535,0.9860468634649331,-0.0035751029595257615,0.016795087959059676,0.06181217796284627
13.400795654296878,0.1590247496161472,-0.45067523411581195,1.3151879011867982,-0.000901816295823452,0.05638708969664088,-0.029226072493484877
13.420795654296878,0.7432527420261014,-0.026855982710277438,1.0328006659088564,-0.0007647305336574645,-0.027935630840359726,-0.04076932253279188
13.440795654296878,0.1446052822640544,-0.21018534101050582,0.9491949499407076,0.011647875396623234,-0.010687586789264682,0.08368986882783984
13.460795654296877,-0.1605727785417369,-0.5509023956235781,1.0633838577083847,0.009418614563745953,0.031065118897263568,-0.010689295199100116
13.480795654296877,0.5901430323905306,-0.32188183931174114,1.0786080718000697,-0.019497919829203736,0.0055425384075142,-0.02054226164136987
13.500795654296878,-0.052441955140781926,-0.23107551686080455,0.9706262813891028,0.031239904179401885,0.001818020851904405,0.02356505415598653
13.520795654296878,0.14758476428160605,-0.09665240645250214,1.031882411694194,-0.013110221819163026,0.007080069013722702,0.0188605526508978
13.540795654296877,-0.0247341211552877,-0.048827472684153266,1.205960090597244,0.015343021262024761,0.04824843122245918,-0.003722052155089768
13.560795654296877,-0.3626489109208271,0.008178719237880473,1.155629015074628,0.004071873732464465,-0.050210948329214286,-0.0004621073337591041
13.580795654296878,0.19240041928983231,0.027896732446828575,0.5453321578975421,0.023879090360859473,0.03441433888509197,0.05747096051244615
13.600795654296878,0.2958302889779435,-0.36507079698011463,0.9964310015224345,-0.002538920402115953,-0.00975978507598631,-0.005667173157280609
13.620795654296877,0.18154903756987348,-0.20537688869495538,1.049544494144442,0.0026528173371486497,0.02911983733684163,-0.0427903167111602
13.640795654296877,-0.5659272857855024,0.16933172202845523,1.3203222438919693,-0.004888187322604867,-0.009826059616379682,-0.00418993147201781
13.660795654296878,-0.3564929224920486,0.11399142358233551,1.0347609149504902,0.024225431674728858,0.007363848039990366,0.05498282267660188
13.680795654296878,0.04657143372677949,-0.4009377144994011,1.1695484780205136,-0.013099749668337799,0.03708659410902446,0.04086332571341113
13.700795654296877,-0.4677894284646971,-0.40031786899086025,1.3176147006015935,0.000867745529692289,-0.041569733473030744,-0.0927842433796748
13.720795654296877,-0.4692146551258619,0.4465549526277355,0.9723951491828464,-0.028632645030406075,0.043547647597516,-0.013345320540726303
13.740795654296878,0.05546190527003783,0.12379280059204427,1.3962277578326407,0.02569811934530411,0.006706762492159636,0.132189539017163
13.760795654296878,-0.3399530268767868,-0.6336241372476251,1.067387998163621,-0.0019135706940555197,-0.06320486084689696,-0.05372509355321431
13.780795654296877,-0.05034036909019134,0.15182365979654383,0.5056211736763803,-0.039452081249563016,0.05073525928995935,-0.07196142324966225
13.800795654296877,-0.10580562170016145,0.39762751813306135,1.2605872846631914,0.02478353005158469,-0.00923690021430197,0.08254854075792624
13.820795654296878,0.17238900811334537,-0.28005960860577284,0.8938314087473186,0.02047701334345813,-0.020307808217564345,0.09204301174098314
13.840795654296878,0.19129629944581736,-0.5432924184834156,1.087240837618672,-0.039322053065010215,-0.014375510482693619,-0.10439071334041419
13.860795654296878,-0.1622547592456563,0.07071848207871845,1.1277879074071437,-0.009472107783291998,0.007424923044591943,-0.04353342391016262
13.880795654296877,-0.5047150361512558,0.35835870492384353,0.6433900370573234,0.02695216419350862,-0.0747414204563198,0.09820996774114325
13.900795654296878,-0.22416777253613207,-0.5255764707864765,0.9008781811180258,-0.015529488930374417,0.049941123175736714,0.03358380390035406
13.920795654296878,-0.11074444644281871,-0.20595134999361003,0.8391958526083132,0.001710693801666513,-0.03971805239329655,-0.10064249673639665
13.940795654296878,-0.09942646624753679,0.01135001734483333,0.9520836393215307,-0.015652495263408013,-0.018189781602601415,0.043368564924222856
13.960795654296877,-0.2285050872343753,0.008256467979967198,0.3985425793482236,0.05414039906556005,-0.023627189201538345,0.05550235255820136
13.980795654296879,-0.3168561360474702,-0.6220191874998922,0.9264787891350763,-0.03591287839669664,0.007040261358360452,-7.404017705064304e-05
14.000795654296878,-0.7756110133952664,-0.059236890707735225,0.7169466276328105,0.03874689424478042,-0.011607845000167054,-0.05267211394381227
14.020795654296878,-0.26656516874788516,0.09236213435241741,1.1041774067403918,-0.01969137917950997,-0.04676246524740107,0.044440795285428394
14.040795654296877,-0.5722060992040131,-0.0008321706837186886,0.5285777274581274,0.047520610752716345,0.005560160367547035,-0.006943417163245227
14.060795654296879,-0.3679793869498047,-0.3659264249196206,1.1151090450963281,-0.0439466317786315,-0.051336486093097974,-0.030359928987379346
14.080795654296878,-0.06809231687061364,-0.032467637510280235,0.3397240167577109,0.05195509516485059,-0.01872297781028252,-0.005448224264073656
14.100795654296878,-0.2729414814257376,-0.2056102886249135,0.8312071401425943,-0.03606023987268064,-0.056420107561268654,0.007541141919367192
14.120795654296877,-0.42133291801954276,-0.1797673585319882,0.4953998591472663,0.03854818148651977,0.024376653983243755,-0.03312797178040688
14.140795654296877,0.09235677101331746,-0.05547065452823686,1.0259532189175815,-0.03160880135442095,-0.05006820553132787,0.03310548204542266
14.160795654296878,-0.3559916330175215,-0.1523603861779637,0.6012061684716903,0.048799599967764444,-0.050732873476616994,0.0034645800437001243
14.180795654296878,-0.85927147532384,-0.03734649500499169,0.7332768183760511,-0.0426084459599757,0.021933166425322403,-0.02275672308916365
14.200795654296877,-0.051919960352588536,0.27211149586913863,0.8069995424991558,0.029100975550017692,-0.04371525040410698,0.0271065297002966
14.220795654296877,0.028357766782698975,0.06524395491332435,0.7043715570162677,-0.005065601664990658,-0.10809493560937106,0.05074337955544931
14.240795654296878,-0.7590446577535267,-0.19418497888682532,0.5671510166294348,-0.01118887732995744,0.02998860918621323,-0.05310990060655636
14.260795654296878,-0.6812722877898633,0.23279971837348049,0.8234494216192387,-0.02377903112650869,-0.05964577281989329,0.0008868461138600428
14.280795654296877,-0.7952044316666969,0.0644063710314506,0.8802962763848857,0.013986812338171374,-0.06963385330050101,0.05937917678850109
14.300795654296877,-0.7641324754530446,-0.15224297062379266,0.4769145206396316,-0.019487557575918794,-0.028617813100748672,-0.00801119023931897
14.320795654296878,-0.41629642608808315,-0.09725867460529876,0.5681478352686152,-0.03298513071978858,0.04069181859459034,-0.022841336834822965
14.340795654296878,-0.24182577954180112,0.41368637863218044,0.705704969157576,-0.0018358159110310563,-0.10923968733407817,0.026532589479961247
14.360795654296878,-0.7462888954539053,0.02586209937026989,0.39342943728997837,-0.003192560104405955,-0.017629413939490884,0.06810540050918132
14.380795654296877,-1.347948472021243,-0.1227794061349988,0.5919001367188903,-0.03441554438068002,-0.01538631943069894,-0.04417945395526645
14.400795654296878,-0.41333461561948187,0.13936039535581304,0.6413691487115741,-0.012068893447323025,-0.05495778475679833,0.03130101196526803
14.420795654296878,-1.0610504061237453,-0.00035242755881249735,0.4008255641428578,0.020427518026953435,-0.10998399985447764,0.05030938058319838
14.440795654296878,-1.2000214548603907,-0.4211002917855402,0.5061265136952545,-0.0386739759473185,0.010420844107654289,1.0987570086873541e-05
14.460795654296877,-1.123066659495972,-0.14426682004725952,0.6391004475268746,0.014529387156888996,-0.041682236801056934,0.001525050300682202
14.480795654296879,-0.5864246008784878,0.13983795481651773,0.2827078437558529,0.009866620388537807,-0.11062033139952375,0.08038683723108209
14.500795654296878,-1.4466863057940451,-0.0849127521476059,0.10052672480966957,0.009503132300093016,-0.06194357013757305,-0.024886462918271766
14.520795654296878,-0.8485740064136825,0.03665493749344192,0.4362791753076078,-0.02709687409881351,0.01543524909904672,-0.040088468896521526
14.540795654296877,-0.8073484781822577,0.22788848272563975,0.5628839160651118,0.029278120017079082,-0.1161307886873962,0.035167271174110566
14.560795654296879,-0.8683032032733232,0.06913573178350219,-0.041836861614565075,0.026398633991218903,-0.07455820526438853,0.028064571056694326
14.580795654296878,-1.2124098339583897,-0.1163420825932333,0.2573854349488042,-0.020911112391325756,0.004288713108868199,-0.03382245250470981
14.600795654296878,-0.8134652910056136,-0.026429110997457338,0.7346144478787726,0.027256164408201493,-0.08249748880910968,-0.003359205975991566
14.620795654296877,-1.3136302184531479,0.13033448341360104,0.21898895080681627,0.019934011024504938,-0.06185468990308064,0.02129096252482684
14.640795654296879,-0.8455658841533933,-0.31833216790258523,0.7455284778214758,-0.006494831228296017,-0.020239028512226788,0.046179042234062606
14.660795654296878,-0.5294026983465507,-0.35242186774596984,0.3818423652981368,0.04708182245779405,-0.07765923184046196,0.012079053188387838
14.680795654296878,-1.1051408330139492,-0.39277146563488874,0.6555804855690289,-0.03798809272179022,-0.014972214655620522,0.00014966512986790874
14.700795654296877,-1.5231205191997597,0.5611767412387489,0.6045405796514038,0.029281363666464694,-0.006918924173296204,-0.026450100480164197
14.720795654296877,-1.0340326946716858,0.10195643637344431,0.8711599349523865,-0.01991323864844972,-0.1595934954790862,0.0870652187100792
14.740795654296878,-0.8798461224358228,-0.39515208573755706,-0.1877724653850265,0.02690686571540696,-0.12003185711893055,-0.056406491990015
14.760795654296878,-1.1322642352910879,-0.0007588581812692201,0.4982022767900101,-0.06560616483906638,-0.018744589752728278,-0.07258048446031497
14.780795654296877,-1.3298606283367815,0.6038653214819544,0.5969395814526118,0.057591572861436284,-0.0306476840164806,0.10322060600064438
14.800795654296877,-0.9486369631513286,-0.356296887657235,0.7209429926873582,-0.02745353568081316,-0.12230231708374019,0.06146706696762566
14.820795654296878,-1.2660642690742654,-0.38717520973222164,-0.048292210105339184,-0.0012408131726302368,-0.0316276994273075,-0.13934081286018152
14.840795654296878,-0.8315356200370386,0.341361972612436,0.4436131110998681,-0.04198296835525219,-0.028612821091491356,0.026797616514246534
14.860795654296878,-0.949501298174785,0.28227464253988377,0.4633498768871826,0.05617584241679269,-0.12411430403440388,0.11740250947561388
14.880795654296877,-1.4023468851013108,-0.6171672273706754,0.41612193277058757,-0.0515847865779648,-0.07297101971270917,-0.10079106252232403
14.900795654296878,0.3991185797629806,-0.024493060296326925,0.5140046078431312,-0.043802154900371953,0.10454122136021174,0.02507950385584918
14.920795654296878,-1.608240069701469,0.6561294176544803,-0.01994442990884497,0.08161359650413738,-0.21831006654506183,0.005116288300792162
14.940795654296878,-1.0593325427764633,-0.5457902644939656,0.1263316261085788,-0.09637844011296236,0.034413002691708695,0.09548948568279848
14.960795654296877,-0.7190912961810655,-0.4578729882257229,0.44608987658455135,0.07596781928196024,-0.1374464853314924,-0.0714302861057726
14.980795654296879,-1.0552680313910168,-0.05427486764048612,0.2383998472708077,-0.06071013737327034,-0.019426832979614325,0.03408578772351903
15.000795654296878,-1.5358657188299987,0.18531235517951597,0.12611532365351344,0.05766238498694941,-0.08084988775697487,0.05845393964401517
15.020795654296878,-1.2071846015680998,-0.5917741380685354,0.818799312472549,-0.034278505051532134,-0.06523039048136794,0.03485315549786451
15.040795654296877,-1.7526751508330225,0.00940038511625755,0.10454892399531679,0.029634982123672864,-0.06241218200784552,-0.10161739601935867
15.060795654296879,-1.3534540137181712,0.21149391503140003,0.601710651712576,-0.04072030092884507,-0.07059085598866696,0.05231396696202737
15.080795654296878,-1.0578350498792572,0.3449198578824799,0.09427212674732582,0.05430502167290035,-0.04580299413157896,0.019822922651926058
15.100795654296878,-1.2030296863284438,-0.4975351845049007,0.6021453571593411,-0.05918120039503134,-0.1513086520899963,-0.04810274426837063
15.120795654296877,-1.5065746873045753,0.18686816268172277,-0.44834520421609025,0.03857816077157034,0.0028363445712710064,-0.06331107351239232
15.140795654296879,-1.1197049539495252,0.04316911726827449,0.8701018174029672,-0.048727710521435146,-0.09926765147649712,0.06949208528962734
15.160795654296878,-1.0472301423357202,-0.20524376411335013,0.011401212928974532,0.07133431060901799,-0.05446287909997693,0.002547667786505991
15.180795654296878,-1.3632992801143289,-0.21489488041843063,0.5707368663146852,-0.08019909842054208,-0.11485709395274123,-0.07894640613754617
15.200795654296877,-1.5068662479061035,0.3465192281042933,-0.17251445229922677,0.07128353860156882,-0.04939514965879537,0.010593381007472542
15.220795654296879,-1.1128683315387375,-0.2299049549581566,0.7137454494207711,-0.05040170611909719,-0.10978943183549668,0.0884393129080709
15.240795654296878,-1.2196246753654392,-0.2766160707571406,-0.04041874931497153,0.05264492179023491,-0.09281469149417257,-0.10961506003384633
15.260795654296878,-0.7263351733115693,0.13696221865359395,0.3242677195913751,-0.07999298189191653,-0.056414343283987554,-0.0002894330957821272
15.280795654296877,-1.1642371115707646,0.21814898528946183,0.22437707533385762,0.08961252813599477,-0.12336645691612699,0.0658257784449444
15.300795654296879,-1.3448556971970929,-0.09809852157407836,-0.02504407583337393,-0.05104138220913068,-0.11965788522469356,-0.04837593423245843
15.320795654296878,-1.2975725589156482,0.2530559523775233,0.04786829071431281,0.0002721797638844503,-0.010146132543960218,-0.0445380891835181
15.340795654296878,-0.7996383302441179,0.10975629771270363,0.5912367963040921,0.014376703555027188,-0.1480306319249233,0.07286183266210947
15.360795654296878,-1.19486593265342,-0.21581083525452224,-0.08200563670980154,0.0009253155227157004,-0.0952914213125549,-0.02577989312485412
15.380795654296877,-1.7132339681624018,-0.23109542226389815,0.35442136621427484,-0.04217763799196102,-0.04955790690151122,-0.07790899882963626
15.400795654296878,-1.1201257704352958,0.25399874531440947,0.03577395299945134,0.030301836638939275,-0.0899802487098017,0.052594647050102104
15.420795654296878,-0.9622092681317898,-0.199514754643647,0.09367405719286259,-0.0197324540925242,-0.0921000294908996,0.01990997293968333
15.440795654296878,-0.8665297193705106,-0.10156839303807023,-0.06466637302561318,-0.010704325314439088,-0.03532467842396012,-0.08999139424355067
15.460795654296877,-0.85328903831625,0.26818332977436105,0.2580471367720962,-0.017626209801815732,-0.1107054325910197,0.013745988866551028
15.480795654296879,-1.6159746455761246,0.08160228960009103,0.034345950543198396,0.025809314408674257,-0.10067384799622629,0.005615236510969924
15.500795654296878,-1.5740972126115926,-0.1165307370116768,0.2015980699073471,-0.04186192407227958,-0.0334274925477118,-0.04657615593495515
15.520795654296878,-0.7241541919548055,0.3658926237895744,0.20369668178776143,0.021963832297092038,-0.061100651570631555,-0.0036966439048114657
15.540795654296877,-1.3118696874313174,0.12291686155437083,0.3049622617615539,-0.011765167000285986,-0.10035318378047732,0.02297022322160298
15.560795654296879,-1.5817005970521378,-0.05546390549057396,0.17678267978854686,0.002691374548141112,-0.05132093334076001,-0.03421312631826412
15.580795654296878,-1.6774094126303498,0.01177694613258573,0.31903800803233956,-0.014948040830301044,-0.07400369003497073,-0.03471909673634634
15.600795654296878,-1.0971525330904048,0.2443122496246885,0.18059739280026949,0.013471566796551452,-0.08857457327769841,0.03180298444989497
15.620795654296877,-1.439740794955552,-0.07970175199125552,0.3851837439501129,-0.004248982568465757,-0.0789392090565592,-0.013456446481527948
15.640795654296879,-1.087894173313941,0.11564173054968264,0.1359460877849674,-0.015167602715258521,-0.06590918350518293,-0.043575662413722266
15.660795654296878,-1.055353080757428,0.33269147132137555,0.3045555055283187,0.001776264589619074,-0.07955961919197303,0.013191174076081454
15.680795654296878,-1.5092093907177098,0.10029058614875888,0.17589343947141103,1.4440288516973398e-05,-0.05429799012133862,0.0067808433177482
15.700795654296877,-1.196639857765129,0.1868572843814583,0.2652742480766415,-0.02295756698679744,-0.05897553441566525,-0.04091540560089502
15.720795654296879,-1.110005682826475,0.06641558798695456,0.332148133730429,0.001628309596859434,-0.10603415726091363,0.004870528630973891
15.740795654296878,-1.8111652715227928,-0.08196569118997779,0.057674450068734236,-0.0014294518733050953,-0.07434195707645261,-0.030476459739563085
15.760795654296878,-1.2122416113724452,-0.06771171073806331,0.1941435338625144,-0.0330930595329149,-0.02201800664908619,-0.018034703447344647
15.780795654296877,-1.4452517284864157,0.008769668590474497,0.29454741663222755,0.019379477148199625,-0.1473011993612238,-0.04648692888032344
15.800795654296879,-1.2351598381931876,0.018463095486426353,-0.005649095834169312,-0.035022533775893525,-0.032221026097387084,-0.020469661611623623
15.820795654296878,-0.8970572920668647,0.20131875079866432,0.14630418486431063,0.012925452145910994,-0.06919619050725637,0.002433589883826178
15.840795654296878,-1.5331240199462859,-0.1023597384309917,0.14989781041452682,-0.008230642760812187,-0.09317543580846833,-0.030681947343339934
15.860795654296878,-1.2910955144305925,0.16410120435388664,-0.16352010570825842,-0.006130733554067686,-0.05680422716911583,-0.03664025806227767
15.880795654296879,-0.6650700355727317,0.0933330018695119,0.309848928733066,0.0027134823912293637,-0.08117918036470981,0.04793557445960847
15.900795654296878,-1.5076179413025532,-0.20382212759528426,0.07764698921134626,0.02423177948620602,-0.09342177329845268,-0.019787600376262274
15.920795654296878,-1.8761686953960626,-0.11189421724550609,0.2306184283648762,-0.030367356626298258,-0.10015646631479011,-0.05603607979373685
15.940795654296878,-1.5833185587799068,0.21852145416755467,0.22918460902689852,0.025473165921679565,-0.053726246208016,0.0362436959982991
15.960795654296879,-1.4587254176651778,-0.1937372995896057,0.5076108428564169,0.001453005233152812,-0.124573445663272,-0.006494090697121195
15.980795654296879,-1.3360368948864079,0.0012714098375518428,-0.05489732708125309,-0.010875185602209281,-0.04656995662649169,-0.04971194537623703
16.000795654296876,-1.3105337194633175,0.2050424028864404,0.5764480692297063,-0.0036919967089497113,-0.13347943945454233,-0.0038181934726026472
16.02079565429688,-1.8865465293080281,0.16806500570084673,-0.00409661159646983,0.02081195548369872,-0.09427624389282473,-0.008806024586479725
16.04079565429688,-1.4456157686224074,0.2025266326285147,0.21427076376098378,-0.03189642788976316,-0.09167198096850031,-0.011966817859194744
16.06079565429688,-1.3568296491977014,0.10785878661489727,0.5296687364464407,0.02344653889458098,-0.0738567429843251,0.019624958738948383
16.080795654296878,-1.8031381943645626,-0.04897163977645624,0.39460179619122376,-0.018955456940431593,-0.12053698923616415,-0.01861234966538126
16.100795654296878,-1.9784284186222247,0.16999929546611586,0.19456030907733687,-0.013910793199656367,-0.06145411997523944,-0.034543480913469315
16.120795654296877,-1.3291047924707213,0.12434507976710876,0.5313324844659882,-0.01046380461704714,-0.12409294812938816,0.04078384301963611
16.140795654296877,-2.0478781370849637,-0.09790843393413083,-0.029082635621752357,0.016489440758549054,-0.11780224372577276,-0.011829767970424723
16.160795654296876,-1.3418347997916942,-0.04248128876758387,0.13926162649062787,-0.057188290258751016,-0.0554569227415003,-0.005092294227333974
16.18079565429688,-1.7357361674593914,0.14160763137443153,0.34278642378724294,0.029011504778622518,-0.16722726039197486,-0.05558381027939755
16.20079565429688,-1.5268600935099088,0.11651644633926078,-0.019222641346358406,-0.03442428516566878,-0.09616679330740048,0.05155845630551873
16.22079565429688,-1.5316361667935483,0.04801702072778539,0.09110608217226883,0.022718715588504447,-0.08150466143585486,0.00012673035143177672
16.24079565429688,-1.8087022815220484,-0.09794292593058812,0.4701615282933329,-0.0353396324738873,-0.12802302190135229,-0.0395741949472276
16.260795654296878,-2.0244926932517284,0.31987496903834634,-0.022687540251243737,0.016673432637386465,-0.09342117808325816,-0.011935269167470446
16.280795654296877,-1.7280198591128326,0.10928191489413117,0.27302674907497576,-0.011610141937366992,-0.1317836010182597,0.050663896490159656
16.300795654296877,-2.0578082179983856,-0.20930301739638474,0.2314794024779573,0.007196189660609737,-0.08313474230154028,-0.062092549086986776
16.320795654296877,-1.5674031386971,0.2945814612513988,0.10054571932309439,-0.031791991990212445,-0.11405824328019963,-0.061551229676273335
16.34079565429688,-1.6492148893859895,0.17632404776527144,0.2854010558687425,0.025164658025810017,-0.07537104857077329,0.07835812290264207
16.36079565429688,-1.9164738761206754,-0.18770547846154806,0.22925717200742274,0.004219778745729683,-0.15936002592508217,-0.03086422256698935
16.38079565429688,-1.931730765266014,0.03897294490431444,-0.041970090539801864,-0.03026313295163133,-0.06620453433914072,-0.09643290850408044
16.40079565429688,-1.616895649645483,0.33367785366823305,0.3844301764124789,0.01754147051111037,-0.10132578117063894,0.05452607275043993
16.420795654296878,-1.5880664660567787,-0.17302077882704983,0.25059227475000206,0.019719083732619037,-0.14083800501065907,0.035804861218992116
16.440795654296878,-2.100921244106604,-0.24790399814394035,0.15839604101200586,-0.0376180204219568,-0.07199122447866395,-0.1197942434127664
16.460795654296877,-1.7261658387709193,0.21195582213710512,0.48327472333322574,-0.0034573095868392027,-0.10323834611448536,-0.008025448973294741
16.480795654296877,-2.1392591374042813,0.11926829417587692,0.12766048016448062,0.02960013475137727,-0.13088290756364884,0.05296343728114816
16.50079565429688,-1.5347528427037638,-0.23431271637886694,0.18624738520611925,-0.03570355931671116,-0.07630029673492117,-0.03396827087096797
16.52079565429688,-1.7855544904934202,0.06735375146084398,0.21159928139487935,0.010968347895440687,-0.1221892773769594,-0.0905320541503053
16.54079565429688,-1.9351124558138042,0.34285264513063207,0.09998076564497721,-0.010134545764090518,-0.10185090836996673,0.03525121012622155
16.56079565429688,-1.5497726518454946,0.03844703917348365,0.21940913839894696,0.021658210958232855,-0.09865321387164741,0.03366325843148699
16.580795654296878,-1.6324508403983515,-0.267971114495502,0.3479977324115818,-0.016863037312367334,-0.11895787528271094,-0.0738121121775709
16.600795654296878,-2.231282190470301,0.04196534848225235,0.2641859628418477,-0.011028483422676235,-0.08540974282737991,-0.05082151082224279
16.620795654296877,-1.5854950059517998,0.2782253965764605,0.20213494520492042,0.015183007600476741,-0.09725850401723111,0.05882684180277927
16.640795654296877,-1.3996457139285912,-0.32130254706428907,0.29220574790239684,-0.007749091952974887,-0.1149246197113864,-0.002467580436581277
16.660795654296876,-2.1466198697353227,-0.07954408022541536,0.03686455085822556,-0.015430847576358276,-0.10451867229628937,-0.14476826485420552
16.68079565429688,-1.4192606799634915,0.3310132805780022,0.3025374570453845,-0.012839323134158616,-0.09585048502065978,0.06751324493442114
16.70079565429688,-1.7923890551976858,-0.060009835392245976,-0.03556817992335307,0.05652185328650328,-0.13459449673013826,0.04190458994560175
16.72079565429688,-1.9285000613096415,-0.350418677581832,0.0965501904112977,-0.06447678589787356,-0.06829164211624593,-0.12027290151821365
16.74079565429688,-1.3754163506164918,0.34858340849399666,0.16967873125785252,0.03203903220964611,-0.08734216679237651,-0.011600330127709878
16.760795654296878,-1.5588338505938026,0.06605735003293266,0.3667841560230754,0.01352272394491508,-0.16661649623794983,0.07221339436123268
16.780795654296877,-2.0867423364302273,-0.476510643680054,0.11765561987677779,-0.0063283097183021815,-0.055161154972278276,-0.07752255510372932
16.800795654296877,-1.5113418025262004,0.16110906219306773,0.3414130196848777,-0.017348880730907394,-0.11706807790217906,-0.07566100738337886
