seconds_elapsed,accel_x,accel_y,accel_z,gyro_x,gyro_y,gyro_z
0.0821201171875,-0.2560442242866382,0.579472205081582,-1.7909129645489157,-0.090248703956604,-0.0569520369172096,0.1305841207504272
0.1021201171875,-1.1126017470228327,0.2971756671345858,-2.908675569155375,0.09117649923564872,0.04239587291292163,-0.08579730011932667
0.1221201171875,-0.5592842168565347,0.4805172305887105,-2.088671283725856,-0.12341819443449253,0.0004967293527119864,-0.031019654692075127
0.1421201171875,-0.7387569073814523,0.8622886115021853,-2.587002188929735,0.1142012244190225,0.023755568645169377,0.06115670433618164
0.16212011718750002,-0.6382640272318851,0.1511640077898751,-2.186499182945444,-0.07223334777291897,-0.017596284315234894,0.03551247587198826
0.1821201171875,-0.6535984392424411,0.2171959755976472,-2.5539755200349137,0.04164796758021523,0.05100167806181121,-0.08207878790375857
0.2021201171875,-0.5302007360499608,0.37810834815037114,-2.108646900807725,-0.04012323912112718,-0.04107365615201326,0.024417518915404793
0.22212011718750002,-0.5401156106401684,0.2699818793907691,-2.4828047179959385,0.049701083840312306,0.03399846325862889,0.038543604438004586
0.24212011718750004,-0.12204057484112378,0.012651423181376874,-2.2053275511769117,-0.04167606589642306,-0.008545024090078809,-0.03226080348609384
0.26212011718750006,-0.1477602056369341,0.277958992271101,-2.3515346290865358,0.022306020241931842,0.024257555745238763,-0.015407633340033804
0.2821201171875,-0.05318598319961253,0.23499606115138533,-2.2268986931396175,-0.0006233361520443524,-0.01651358367071243,0.07096123842241712
0.30212011718750004,-0.34197918815173906,0.001448917201385764,-2.4332121715509225,0.021882465846212666,0.018488610954902784,0.008004664126613006
0.32212011718750005,-0.4997767047152114,0.031814273704460785,-2.1948155767332334,-0.02166010224087632,0.018634203947342064,-0.024090626840680286
0.3421201171875,-0.31846682016878464,0.28878666809946774,-2.3224630733089273,0.034742285712712,0.006303225339795969,0.036031968746724395
0.36212011718750003,-0.318121988708869,0.07862385314921874,-2.2705398184919536,0.005254893700841279,0.00010532151868144802,0.044285179408091735
0.38212011718750005,-0.3676395784614337,0.033501535733471276,-2.168088517433812,0.011354201181377243,0.019970539414616965,-0.027603688467706083
0.40212011718750007,-0.3815878460715274,0.26758002922624885,-2.0212421879934914,0.002791872035346527,0.01958484757662175,-0.003370236396708274
0.4221201171875001,-0.4501948528173948,0.3072495231988091,-1.8493715479080761,0.018919270878499494,0.016804351976929106,0.04110559252780349
0.44212011718750005,-0.3786625108103303,0.16370773685259474,-1.7399904817430594,0.0054591206287816696,0.015666325799912017,0.011666319932231701
0.46212011718750007,-0.5730593958095664,0.28698209409735664,-1.7715829688132227,-0.0022889666863242088,0.008354123204229744,-0.03196350675146569
0.4821201171875001,-0.47808181482152823,0.44509574268204727,-1.7443602079430867,0.002465181283903619,0.01533668462433355,0.02945237762067048
0.5021201171875,-0.4703672109970759,0.2433251995658871,-1.7545394578755815,0.01381391285642445,0.004090956060358309,0.03629276932086375
0.5221201171875001,-0.43901475500908127,0.11199812528656024,-1.8562109248492988,-0.00870222591502341,0.007450152709801554,-0.01572827660824057
0.5421201171875001,-0.338948905082525,0.32484683149791393,-1.733743580852822,-0.001302065993322658,0.019203124316228233,0.0034096459320612648
0.5621201171875001,-0.42512485861776045,0.4049525763158102,-1.7141032253102095,0.008848894522768845,-0.0015005868097337587,0.02836791956686505
0.5821201171875001,-0.517539446408303,0.3549143604853721,-1.7873831142871572,-0.004409547314386698,0.02712494303989085,0.005625045696609731
0.6021201171875001,-0.4144725486291125,0.40754838012673583,-1.5280128128780546,-0.008945920376745336,0.011538360890756631,-0.016766033141801976
0.6221201171875002,-0.30266980128623017,0.5873954109641284,-1.7058594718085607,0.013169056409893557,0.0002107256488153304,0.02390239458034402
0.6421201171875001,-0.3327624034499309,0.3771119133183937,-1.7129071269437446,-0.0027661459587738596,0.0323785861649386,0.032510038020800054
0.6621201171875001,-0.3433950812020621,0.3477091861242887,-1.5354391229867295,0.0019457611793889636,0.014158124834546338,-0.02161303210827931
0.6821201171875001,-0.3138579859241082,0.5064421513146522,-1.6222842691693498,0.006938512883467105,0.027093304821699526,0.007864566840177679
0.7021201171875001,-0.2922724145678777,0.41185602160354606,-1.5971197420485541,0.01396160048571929,0.019815387902679275,0.04847883044006744
0.7221201171875001,-0.3476762091730012,0.21963525834052983,-1.5213090157162485,0.012949425609158672,0.013792039450239822,0.004093314189749644
0.7421201171875002,-0.4913271033935417,0.2293841646010393,-1.4751076679440045,-0.001662891525436694,0.04621662871338098,-0.01416969218120394
0.7621201171875002,-0.4024413422839664,0.3582265370861373,-1.322110174925017,0.012644847030228275,0.017805534558844236,0.030313797501871773
0.7821201171875001,-0.23614511259625798,0.20944325954142715,-1.3454116141907195,0.011074816135368593,0.03252313142059402,0.02534282503216614
0.8021201171875001,-0.18711901825266092,0.1652271580353282,-1.369400883763196,-0.008217419401148472,0.024895946645739464,-0.019317519066383185
0.8221201171875001,-0.23542995305811715,0.26712844980529354,-1.2825617242088037,0.0013522930988300321,0.03025256600460567,0.008331711301194658
0.8421201171875001,-0.33570147243888815,0.27488449732205755,-1.4019148742847316,0.004599891953477863,0.011712444813485434,0.02034707354539019
0.8621201171875001,-0.23122731089487875,0.0615705774744638,-1.3455031930653263,-0.009540076451236936,0.03583451781467234,0.006943652119048239
0.8821201171875002,-0.21836468749092716,0.15943459620848427,-1.469400846337287,0.0026767203666972594,0.018234413903976936,-0.014796524230588021
0.9021201171875002,-0.33966140023017205,0.13030945121845958,-1.400067608411951,-0.007098456889454839,0.032892927499769326,0.023285475545567067
0.9221201171875002,-0.3448934106983168,0.08809338758508503,-1.5765126489864656,0.01669141896631154,0.019861683496584362,0.01529822746772877
0.9421201171875002,-0.3185468417033945,-0.02367683870446206,-1.504016012811145,-0.013429722509429965,0.022749289556039155,-0.005794679948845999
0.9621201171875001,-0.3536949422347636,0.05637013355133368,-1.509381646840543,0.012305744614440653,0.05312834769006916,-0.0036648570323337864
0.9821201171875001,-0.18058239806882823,0.11353021158010286,-1.3599765358329594,-0.002078815875857305,0.014448150508836152,0.015082599999050065
1.0021201171875003,-0.160375443382195,0.13342798580950652,-1.470555322321385,0.013352710035143678,0.04482216081364666,0.0028310489544144685
1.0221201171875003,-0.07456517116461223,0.17219348642192842,-1.312050630352722,-0.009551689491541452,0.03465068006832602,-0.0014904227746036492
1.0421201171875,-0.14100217332221066,0.2718350009917496,-1.3602408657541716,0.013586983827367238,0.046875474201752,0.019025714608700443
1.0621201171875,-0.11345327433802674,0.25616165444364536,-1.258503860378424,-0.0027754985929636365,0.02947536500330224,0.016033376721352053
1.0821201171875001,-0.06818763840152607,0.23297050721456228,-1.3271625458848346,0.004508451401446668,0.044143733835049916,0.006226286070480184
1.1021201171875001,-0.14226575706141226,0.2820716271102269,-1.2580281792836243,-0.004561972387540177,0.04499823747364915,0.014547979815073445
1.1221201171875002,-0.1266715045582815,0.281576480246647,-1.2866666563304128,0.0068865432056644475,0.029532032019960203,0.0288438186767416
1.1421201171875002,-0.34526340150837426,0.16456097764681005,-1.2930268857776206,-0.005622074317669282,0.046846620286776317,0.008604162701079877
1.1621201171875002,-0.05841314497771683,0.20955765347257657,-1.3619501731462373,-0.0055240879560885135,0.04769246774222398,0.005298335836965216
1.1821201171875002,-0.09201313812488951,0.24907582863147978,-1.2776516820519779,-0.004205997734212844,0.04453300256352258,0.019603124551084587
1.2021201171875002,-0.12613843068957414,0.21590537654616898,-1.2815688023456626,-0.0024338146301477767,0.05120176054014878,0.01776060252476588
1.2221201171875002,-0.043378774619027165,0.1681159917072163,-1.3008609949577572,-0.009152508125071861,0.034131105508782636,0.012150184008143052
1.2421201171875003,-0.1341623460384211,0.20011118747440548,-1.37044491741693,-0.0024391262745870994,0.06214406062632855,0.023136310693882674
1.2621201171875003,-0.12307637547269776,0.15811710250141905,-1.3864567796691296,-0.0034727469023718128,0.03931691202690759,0.029479670943394678
1.2821201171875003,-0.20596955569975373,0.18801684011890402,-1.4622896717871496,0.0002676936726350114,0.044466186077155044,0.02444015068232948
1.3021201171875003,-0.2615160434788501,0.19393655026387563,-1.4464133625756,0.00011224565112278857,0.05229011946979186,0.03041391815687344
1.3221201171875003,-0.30064383466020156,0.2075838058637526,-1.4323859417116933,0.006256995344081472,0.04707710672459844,0.027575192696484938
1.3421201171875001,-0.37064670311098274,0.19555498516733946,-1.4112917863338523,0.00040927910217435174,0.05992081797639769,0.02152303190279618
1.3621201171875001,-0.40556110729578426,0.20693746574321753,-1.3738026922356494,0.00412110375008711,0.05108242404711099,0.011192358754052984
1.3821201171875002,-0.3732284028810808,0.2643759469604675,-1.3739075115151054,0.00317385843761452,0.05068848802376342,0.024308595377822914
1.4021201171875002,-0.34441809863333755,0.19589974932740267,-1.3369112213399932,0.006970962045696902,0.0589445569359323,0.02478483820006823
1.4221201171875002,-0.3559777100973577,0.12731534733305755,-1.2623811688051232,-4.562243317462476e-06,0.04097255378064166,0.000858355439831347
1.4421201171875002,-0.2634082951768472,0.21567476108841982,-1.3274637339200768,0.0024668363976111025,0.05374280806916675,0.00763474988587561
1.4621201171875002,-0.2784951029030705,0.2502911881991962,-1.3212839915986474,0.0054972434574846836,0.05329995738082936,0.019652177284023267
1.4821201171875003,-0.2888153288931281,0.20231354482638986,-1.338450582754589,0.0052135301825028246,0.047751131447608765,0.01335726521025333
1.5021201171875003,-0.1985942552441376,0.22722225211429728,-1.3823046629340783,0.0029837993606279143,0.0519996257064838,0.011802074818967112
1.5221201171875003,-0.13132966823031014,0.26865998163582744,-1.391991830537636,0.003992534297790646,0.04226642740810479,0.016252211739724215
1.5421201171875003,-0.1697478488740494,0.2516314275129823,-1.4325369448740797,0.007829061368890082,0.054498995331236914,0.02239961067376038
1.5621201171875003,-0.11822950393986119,0.2068811965537771,-1.3814056725712491,0.0001528892242502339,0.05916321286703339,0.01365705573617869
1.5821201171875003,-0.19377592773480587,0.2795374792746666,-1.3678559875827834,0.007026293826106826,0.04666202494312225,0.006579862432503972
1.6021201171875004,-0.254800245601401,0.3086744062159193,-1.4201130670525084,0.005537764284739759,0.046980086710019506,0.02062240866956486
1.6221201171875004,-0.2266592366075996,0.27877949726199686,-1.4424742488853277,0.002809024149481047,0.07402916432976905,0.018740486576812165
1.6421201171875004,-0.10224482280626004,0.24123182945417362,-1.2997450642555193,-0.0004903305898520901,0.046324455579935274,0.0024497241112624523
1.6621201171875004,-0.018598885310923463,0.30405627737007623,-1.4226124078225035,0.004116674718374765,0.06771817663608179,0.012875234325513999
1.6821201171875002,0.020793039889226112,0.30011407236173515,-1.370659702121647,-0.004147566966342288,0.050791950521046604,0.017241517475373856
1.7021201171875002,0.09018244605492393,0.2474008999886038,-1.4224401379722795,0.004689508334264473,0.06389565099646913,0.018701377410469008
1.7221201171875002,0.04053877366955918,0.2018222227405295,-1.4068931702119274,-0.007914319206881524,0.061177742555196715,0.012014725500551484
1.7421201171875003,0.011126501162184188,0.2371575743158867,-1.4931859608079776,0.0030155228034117383,0.05559168426507383,0.020581719656957747
1.7621201171875003,-0.015018598784963456,0.20203691901989262,-1.5448224073693402,-0.002272007179724839,0.06431227632002146,0.025795932910397966
1.7821201171875003,0.015193830313572878,0.14263275592118102,-1.5803333772949184,0.00032001750444481884,0.06605207493394824,0.018205785752782512
1.8021201171875003,-0.03286128474615706,0.17062652768737177,-1.5698488340555454,-0.000781243935049509,0.06272380724268625,0.015644938959434713
1.8221201171875003,-0.08906448154812173,0.2053705883607809,-1.5716116491324634,0.004389208856161058,0.07142933584091804,0.02643183754901921
1.8421201171875003,-0.06815332905226325,0.18130394070839262,-1.56969031103326,0.0043299525639219705,0.061437754118919406,0.019213097874701164
1.8621201171875004,-0.03202065063369035,0.16756425742062575,-1.5673767925376618,0.0027616052486712037,0.06514489189425668,0.019780334469574678
1.8821201171875004,-0.03950764805002079,0.18001223059817906,-1.5555252938801165,0.00823925243309996,0.06661421652743182,0.02426598104836251
1.9021201171875004,0.003090813511763558,0.18986479456508787,-1.5015492850939645,0.006559250451290866,0.057327190732394416,0.0278312862830264
1.9221201171875004,-0.014046221164457041,0.18385415936234625,-1.5058750476464169,0.009298535017567654,0.07071309182593287,0.025327033851521522
1.9421201171875004,-0.0449889127029869,0.20216262339933186,-1.451753012647875,0.0030928139024821387,0.061170284760577585,0.023466539214331752
1.9621201171875005,-0.10339998123350548,0.21838581395987747,-1.4513079879517141,0.005980371839042776,0.06955349247185721,0.029145130231751564
1.9821201171875003,-0.17691112058202518,0.1631139997275125,-1.3948168420610052,0.0026672122060866434,0.0630930438417191,0.02726873927348047
2.0021201171875003,-0.2320575877208614,0.13665515664888858,-1.4208886889244086,0.0005055128992065986,0.06962089670191002,0.021415940660567564
2.0221201171875003,-0.20061543906228918,0.1577516352845421,-1.388127814311462,-0.0015439744986232983,0.06954549403441998,0.023768527895076046
2.0421201171875003,-0.2816279874289629,0.153324759403392,-1.4361907250608552,0.003985839733074026,0.06562650916119406,0.024799068232872357
2.0621201171875003,-0.30571052383529057,0.11075668789465401,-1.4020728428783074,-0.0020823837480168955,0.07149651455145921,0.020544997602618978
2.0821201171875003,-0.27869473329496114,0.1729045959285015,-1.374372551611855,0.0036231590476327653,0.0657662510307963,0.016030110294014226
2.1021201171875004,-0.28236860429099647,0.15726868729970972,-1.3785220523627735,0.003812853135210992,0.06859126869678185,0.029528963701211927
2.1221201171875004,-0.3160041043289441,0.15258626418400822,-1.3816042164862976,0.0062933850798407055,0.06768669099096096,0.01766510131530621
2.1421201171875004,-0.3121592978945848,0.19246250427698366,-1.275811717027744,0.0017272861429041546,0.06195998277057936,0.014876143037638276
2.1621201171875004,-0.32917776136269133,0.23200944265320486,-1.285747246076236,0.011740741516005062,0.06328230949049453,0.0226985379865081
2.1821201171875004,-0.3806811678816102,0.23252473565146267,-1.2381355247638788,0.0024446834964996114,0.06556151046246986,0.019183948690096722
2.2021201171875004,-0.33831319840398316,0.2303275611850561,-1.1925873048861602,0.006995753421783068,0.06289034783468382,0.010566250035856137
2.2221201171875005,-0.3072306927293088,0.26523612982444117,-1.1657624348364184,0.003557120933090988,0.05473913972496292,0.01579745531370483
2.2421201171875005,-0.3121314856895649,0.24714802094245283,-1.156070892048816,0.003753075249248051,0.06928076926978473,0.012413339343064211
2.2621201171875005,-0.1992482252564384,0.2684804333742966,-1.1173698803041299,-0.0020356871748106946,0.06415187828048627,0.009920366585640763
2.2821201171875005,-0.08205383566006631,0.3041372029136371,-1.1635303214705743,0.0029094399398412103,0.06033757812927703,0.011583074846858837
2.3021201171875005,-0.015870420101788293,0.28334820686098017,-1.0969908201313217,-0.006889310489133402,0.06536307508349448,0.011290762006685506
2.3221201171875006,0.025956493283283928,0.31205763481662524,-1.1326122331309587,0.0025630420773477373,0.0667555314611348,0.012678733357582897
2.3421201171875006,0.08027601188116555,0.26284607629927315,-1.169983128581832,-0.0067915548795776945,0.07133851306766131,0.022758862295716602
2.3621201171875006,0.06561699965713448,0.23862865491251206,-1.1543305208305632,-0.0016219330102973275,0.06318936070384432,0.014265554009228165
2.3821201171875006,0.04317463133567139,0.2134479526907078,-1.1867482093738912,-0.00720542105053033,0.07343277202806996,0.01666701128255745
2.4021201171875006,-0.0036918538430699803,0.2055854902894931,-1.1852057692710831,-0.003892826069062979,0.07847899489706436,0.024928916544172203
2.4221201171875006,0.019902154485327412,0.17334937152936156,-1.1688549089942064,-0.0022336041153232715,0.06818965228788562,0.020002073508776835
2.4421201171875007,-0.05647301505074651,0.14756015576709852,-1.2141170210049783,-0.005540386883277852,0.0743794978613456,0.016300852573667923
2.4621201171875002,-0.04709522094918765,0.13889731234627556,-1.164424240623921,-0.003106872304061479,0.07611920678178494,0.029791394879328564
2.4821201171875003,-0.08924179937753014,0.09984961740621114,-1.151571441225754,3.3530225301146194e-05,0.06355209191892508,0.019863523522285185
2.5021201171875003,-0.12950957896260962,0.13334445791048585,-1.1663730810356974,-0.008352368083961313,0.07047740464919329,0.0225271904016477
2.5221201171875003,-0.16314753565695797,0.11865734358569173,-1.0834722752941706,0.0023983290071427367,0.0635075911126497,0.030687389476700935
2.5421201171875003,-0.2057853480424116,0.1277051025928384,-1.1391713338839984,-0.0053015179032689114,0.05473057726300295,0.02338681221706316
2.5621201171875003,-0.2730887164464243,0.10216846480593055,-1.0921748492692755,-0.00615503149288333,0.0721217177349176,0.02460865664711149
2.5821201171875003,-0.28811727899888634,0.16230618192505517,-1.096234621291718,-0.0005314855417030461,0.04350935606530821,0.026414954951739664
2.6021201171875004,-0.3360301027416791,0.12449052385820823,-1.1679509221247752,-0.007412224399176194,0.06319448653278786,0.02890865988365021
2.6221201171875004,-0.3422385591457592,0.10881990329267555,-1.1111875543831085,-0.006063827309313428,0.05547222563858733,0.021218622012757423
2.6421201171875004,-0.29236815450986037,0.14117102146901506,-1.1133121544894387,-0.004205929445901563,0.0432974668566677,0.026957275192679542
2.6621201171875004,-0.3114947482713287,0.14417174277216732,-1.1883447556129798,-0.007695042193716926,0.05727556687141808,0.024490395777834798
2.6821201171875004,-0.290913973719456,0.13891178457904374,-1.1199735764101537,-0.008975214278185576,0.04636426311492308,0.017977256240834343
2.7021201171875004,-0.2936293941568199,0.1903080310164889,-1.2129498484127585,-0.003791824961242711,0.051473266354287214,0.02198473953783806
2.7221201171875005,-0.2815534144121179,0.19397582722878198,-1.1747015769163727,-0.009707851548973965,0.05373235396062828,0.02351958487107946
2.7421201171875005,-0.3430818138717037,0.18176807513668986,-1.1833243619487717,-0.004790544771937454,0.05341589722145023,0.014945602847426473
2.7621201171875005,-0.3385465952193016,0.22306254963383354,-1.1871845294726735,-0.009124024247145347,0.05188341031665813,0.015363062488554015
2.7821201171875005,-0.32699900769374446,0.23289699658748428,-1.1961332121515706,-0.0024835078311464883,0.05270997425604594,0.01940873784504155
2.8021201171875005,-0.37546571838889636,0.21452796938979443,-1.1887915960364306,-0.007426008825585049,0.055584907516884906,0.011927301664868415
2.8221201171875006,-0.3995859281286692,0.24893084150721298,-1.2096707355097436,-0.007321467185726906,0.05814661546067809,0.006579665970874845
2.8421201171875006,-0.40553993843915936,0.25154384572004124,-1.1679561169400987,-0.005145421827152438,0.05104486868452458,0.013522773243836848
2.8621201171875006,-0.3846304758468269,0.23457913447613782,-1.2001981841736726,-0.006003728525836757,0.05595274138110756,0.008555092175446682
2.8821201171875006,-0.39069125036138413,0.23551366343873056,-1.1678574234349746,-0.00740992581602694,0.05509629196611822,0.004431586615044248
2.9021201171875006,-0.3511125099222322,0.24391324717630303,-1.174922712336372,-0.002374842129610395,0.04382703340095466,0.009513398584607443
2.9221201171875006,-0.3915116861525487,0.19987289778231715,-1.1663637047415643,-0.006102943238114043,0.0477700376358553,0.007364772588322581
2.9421201171875007,-0.35995700812149534,0.19927475765576103,-1.1530040620821866,-0.005427026083034334,0.04672290840547453,0.00036279191378555894
2.9621201171875007,-0.31512888786415727,0.21462372319054202,-1.156096472701565,-0.004896131618332522,0.039722208106359146,0.00728378220908958
2.9821201171875007,-0.29746811238956966,0.16682550215556655,-1.1499741249028237,-0.004158041520235879,0.04154670146007269,0.008658014347258434
3.0021201171875007,-0.24220277323666292,0.13601192656948302,-1.1571782953230587,-0.006017500244049542,0.041166734402402365,0.001493449069158849
3.0221201171875007,-0.1864694417304534,0.13608388733122204,-1.1497082494313529,-0.006552207513282812,0.04023451394693125,0.008131162912818686
3.0421201171875007,-0.2555217058749137,0.1221598861866671,-1.1511275832640597,-0.004711419834625285,0.03928010514598971,0.006422630223953287
3.0621201171875008,-0.1574051630345988,0.11933094205462587,-1.1483365356462052,-0.007555778291961519,0.0349427358276243,0.0061780733272496615
3.082120117187501,-0.1762071333910988,0.1007265203824556,-1.151037987621404,-0.005094850731598893,0.04123019026645761,0.007260898603655166
3.102120117187501,-0.12388259441915307,0.08720914307854645,-1.1578844409810582,-0.005323448965048967,0.03593178328681259,0.01000142011490138
3.1221201171875004,-0.1381151850171003,0.09385695995476784,-1.1806486272297116,-0.002978722740286523,0.04160580955350811,0.006973290323300732
3.1421201171875004,-0.16490441659827554,0.09769769304550144,-1.1194028876054474,-0.005612341331289949,0.0365481518456671,0.004868104489182434
3.1621201171875004,-0.19534306453127948,0.12431719397131463,-1.1325610985737296,0.0013098436656033417,0.038326862605839125,0.011530693280977097
3.1821201171875004,-0.1654109949117244,0.11235527084933732,-1.1230914047553182,-0.0016830451225613547,0.04178801667806494,0.015481878096445988
3.2021201171875004,-0.21941707894872456,0.09162857153015583,-1.0740401231999746,0.001070951634626402,0.03883835678626459,0.0021783385188082027
3.2221201171875005,-0.18696686191532774,0.1613965610374152,-1.047967375547366,0.0005458891009058921,0.036212777868995856,0.008821769882726281
3.2421201171875005,-0.24544337814232903,0.1869280696093893,-0.9663904200408028,0.0042240290994517305,0.04163444403953923,0.014727877198779916
3.2621201171875005,-0.25736998226320995,0.17520868303947965,-0.9344631853922581,0.0023026889882914285,0.038325049491990254,0.007668783392450788
3.2821201171875005,-0.25874808963940477,0.19821620513868218,-0.8972705337687507,0.0005216622665033613,0.03990448555676407,0.007021418246506693
3.3021201171875005,-0.3007085609569277,0.21891152769680186,-0.8236500002079881,0.00463561443212616,0.03656847811417009,0.010320551991441053
3.3221201171875006,-0.3277611394178416,0.19427999833262058,-0.7889273658450188,0.0015164995333620858,0.03304511473454724,0.010856155352942298
3.3421201171875006,-0.35163088900097017,0.20082800480766813,-0.813465885347705,0.001689459085176657,0.03617122000639865,0.004418462886991525
3.3621201171875006,-0.36087255583345323,0.21541313670400716,-0.7440822846981575,-0.0025722676611081236,0.030320192486039187,0.008042420821536809
3.3821201171875006,-0.38040583406954,0.20041010863421935,-0.7726161457845533,0.005036115748783379,0.024054784504906286,0.012563966959659995
3.4021201171875006,-0.38372157053317424,0.1649295929163349,-0.7841377069176427,-0.004021909234638191,0.02384940209929985,0.0036417856295107693
3.4221201171875006,-0.345201800845087,0.19869387116106127,-0.8295084574003135,0.0004138429481040049,0.026087657389370054,0.006767949061931754
3.4421201171875007,-0.3211275671820179,0.17932601341860277,-0.8319130944821255,-0.0018277026666623146,0.016469621158974223,0.011936070309027897
3.4621201171875007,-0.348064676245605,0.13797986071276214,-0.8964458677751662,-0.002409138770274247,0.02028307240072457,0.007587225941833137
3.4821201171875007,-0.30126678688929204,0.14957694119234094,-0.9198629540127417,-0.005411790874450064,0.014733954412397908,0.003925025563095746
3.5021201171875007,-0.3175596302648003,0.16575764809882834,-0.9788303391587788,-0.002381945257904127,0.020675597632884814,0.006845016455958664
3.5221201171875007,-0.23323226694624702,0.13057365134330895,-0.9486163038395815,-0.003944330893476461,0.02067108518746142,0.01287343831771777
3.5421201171875007,-0.2078817521927982,0.1196573053055297,-0.9925413092513862,-0.0022150331801389887,0.014984527276631104,0.0007701575313236624
3.5621201171875008,-0.18801907499309814,0.13131886083280145,-0.9811796655670402,-0.006789519476096568,0.020718293841204796,0.004232573165486531
3.582120117187501,-0.14868144359273544,0.15482799573009534,-0.9982412432131691,0.003200685835606518,0.0184112383830791,0.008819928990069194
3.602120117187501,-0.15830949252340318,0.10307970247043875,-1.0025784127668451,-0.004615903653628272,0.0176111688597092,0.008853612686636482
3.622120117187501,-0.15183673965144448,0.11688240995776435,-1.0135402154676068,-0.00019884812696944286,0.026529504325379077,0.002563126937349397
3.642120117187501,-0.1310558263584728,0.13576354676030297,-0.9846392516326962,-0.002468948844435235,0.014258356562850148,0.008768272949259782
3.662120117187501,-0.16836859159205056,0.1603363635250985,-1.037447143562848,0.0023427429471686843,0.022950859032310058,0.011592117252170148
3.682120117187501,-0.17212424151023722,0.11856872702464911,-0.9921380368004978,-0.005130537124276268,0.017884360367823336,0.007412243577191235
3.702120117187501,-0.20093133666111127,0.14990499125199097,-1.0154932983154732,0.0017425576960016767,0.019359644023411903,0.007029850901613733
3.722120117187501,-0.25449742159205807,0.14706555481569825,-0.9890790951399003,-0.0032483610638899913,0.010941191336311228,0.011652016496203755
3.7421201171875005,-0.25308149191847457,0.15883974353723196,-1.0429429196938618,0.002139163397785027,0.010204926897159856,0.009651609691708706
3.7621201171875005,-0.2673680031191383,0.1414324222708793,-0.9653811846904892,-0.004408011875386207,0.011300016928486622,0.008596453370517053
3.7821201171875005,-0.30242140477099927,0.1436987793956445,-1.0383815467791053,0.0023730770304817733,0.013710630770069173,0.009416811191535708
3.8021201171875005,-0.31692983579747264,0.14072846362976868,-1.049342038032255,-0.004915186052889251,0.018604801174762643,0.013218781705575047
3.8221201171875006,-0.2501472451751505,0.12601409015880313,-1.0381757771096827,0.002152903324203438,0.012977222335285043,0.011318358770487518
3.8421201171875006,-0.24141409624430046,0.11827899615925593,-1.073822254480134,-0.002468565251836962,0.0064396382716136276,0.0092924331205302
3.8621201171875006,-0.2827832189098228,0.12861826532849524,-1.091976714666151,-0.0009761481152790174,0.02153599172550071,0.00871834609703053
3.8821201171875006,-0.2525242917308247,0.12447700074084812,-1.0505440628730343,-0.0023886711439376853,0.020450448731758195,0.009715970443962604
3.9021201171875006,-0.28703583545669764,0.12302190965043751,-1.0769754602863468,-0.00014505645389426084,0.025689118721853334,0.01148044202740362
3.9221201171875006,-0.2757252605716218,0.14540964811490223,-1.0576696986762009,-6.924341580940614e-06,0.020056630677367033,0.007776223465638092
3.9421201171875007,-0.26377325853047595,0.14621439089912858,-1.0201296590745588,0.003438991922991362,0.00790760121534104,0.009800608692256369
3.9621201171875007,-0.281542907811347,0.13193802579354058,-1.0041720695378398,0.0018773709164187364,0.014913079237177189,0.011031329780445185
3.9821201171875007,-0.29293878275218305,0.13308337873833895,-0.9720718790565875,0.0011551458872701812,0.011560943962934197,0.0020627078906079025
4.002120117187501,-0.2710516902062087,0.1562774110291267,-0.950401405578496,0.0030707196276854834,0.009374013097010329,0.004465809901974256
4.022120117187501,-0.2617996466882891,0.15167027770887606,-0.9215024576138692,0.002341523195464543,0.014222488908621846,0.008382468704944116
4.042120117187501,-0.2729186649606916,0.1341851344381981,-0.9221400966176548,0.005081537417298358,0.016919639755494997,0.0067876157197461675
4.062120117187501,-0.2698867331028687,0.1388952861232108,-0.8860380095878722,0.0031094825746335896,0.01549498998131774,0.0058144621487524655
4.0821201171875,-0.25829476883798624,0.12652834807888458,-0.849247088173682,0.004134744697972286,0.01176406015256999,0.007960590563917317
4.102120117187501,-0.2568584585329852,0.13141593956469577,-0.8694597348289796,0.003955456016267971,0.009641267381788853,0.0034088539399160186
4.1221201171875,-0.24037073812080365,0.12576980197938883,-0.8674348199909759,0.003279595613165035,0.016563240496060325,0.005845488730388598
4.142120117187501,-0.24733621500681874,0.1212941965274694,-0.7931518634869545,0.005694890702172097,0.010407705339371215,0.010066623943035789
4.1621201171875,-0.23851667567456328,0.09952325751539742,-0.8341033675743837,0.005790873319764329,0.007817005765385495,0.004967175064683567
4.182120117187501,-0.24791049521418518,0.10507597232909721,-0.7933138164664663,0.0004996443591786413,0.012697625880327183,0.0027998975740021314
4.2021201171875004,-0.19211728929002256,0.12444561393667104,-0.7561998877603806,0.007412691998320572,0.004155296487046329,0.007044124771008789
4.222120117187501,-0.19650510246661976,0.10300578348736965,-0.7809361598387986,0.005600367362665086,0.00447666519527298,0.006450224180960832
4.2421201171875005,-0.19688541902397685,0.09858756359953409,-0.7612106522400328,0.002313699032549046,0.010767497846837046,0.002948275335425871
4.262120117187501,-0.16922180365283832,0.11024621431492732,-0.7225844645497258,0.007435363852083465,0.002295139023462251,0.005299381847078503
4.2821201171875005,-0.18768167067797148,0.11732095653163793,-0.7434782031089284,0.003918995786054034,0.008043035061783919,0.006047959513180314
4.302120117187501,-0.16011726975602544,0.1015111047794767,-0.6940907016340537,0.005026385700470685,0.011812952561948498,0.005605973123966195
4.3221201171875006,-0.14569953815423342,0.09458835686816587,-0.6509982608435023,0.006755080421125103,0.005310127745020636,0.005985627562716825
4.342120117187501,-0.15318172491126097,0.10930268684812637,-0.6925466550312354,0.0038599669764784973,0.00588746389934789,0.005220474766541249
4.362120117187501,-0.17166039588034085,0.11249612003948062,-0.6443091709215485,0.005235637082110831,0.009542566061227782,0.006112801672749315
4.382120117187501,-0.19667159604413664,0.11083722599231512,-0.6528872964248972,0.006631183622711445,0.007922855926647343,0.005977637123727955
4.402120117187501,-0.19999473261926207,0.11701750851725007,-0.6294553834701035,0.005461709388864777,0.009220040798116036,0.008712655223756792
4.422120117187501,-0.21545174996007768,0.103803140324151,-0.6082235645692771,0.007433966842281341,0.00800881777303127,0.0074240673010615
4.442120117187501,-0.24102047743484672,0.10311276257552132,-0.6137226141578134,0.0042385317242482744,0.01251582705639842,0.005719553606846321
4.462120117187501,-0.23057885274284315,0.10185126436238655,-0.5884442186161007,0.005752744335987416,0.010490591263534575,0.007094848990992385
4.482120117187501,-0.25066902408262975,0.0913626418795388,-0.5437002607761989,0.006834552492440133,0.004084572358020368,0.006112254119833367
4.502120117187501,-0.2563576236474065,0.09930015217765034,-0.5548721612218214,0.0058926700115069,0.008633544411342144,0.004143959344621048
4.522120117187501,-0.2254025022460554,0.10963268311065216,-0.5084435870415931,0.005924816134094069,0.0050980676036440475,0.006797918175533922
4.542120117187501,-0.22138340185875063,0.09985499903138484,-0.4907001495240119,0.007528632135108265,0.0015414779185488395,0.00677130606076544
4.562120117187501,-0.22262892817822397,0.09552189337801185,-0.49931237552517005,0.005477159671491137,0.0035993579609380965,0.0034481153500004074
4.582120117187501,-0.22936473821937328,0.0961456150741305,-0.4720590766845064,0.004922546445822031,0.007255067331674652,0.005013131503033326
4.602120117187501,-0.22627107699712054,0.11173852889785885,-0.45713970534789994,0.00644988563044084,0.0013992113161971802,0.004631250674888063
4.622120117187501,-0.2315197350339774,0.09287359798349887,-0.46586788695059594,0.004059238987826462,0.003563657485770166,0.002981435493912076
4.642120117187501,-0.23736913569656354,0.10015398750125021,-0.4408362283271379,0.003594261274411715,0.0039542644792516105,2.3542265297581923e-05
4.662120117187501,-0.2225698132642533,0.109321360076498,-0.40694643773902067,0.0050688820654915725,0.003924033108360027,0.004912698843185673
4.682120117187501,-0.21411084309567865,0.10830591926721393,-0.4073508110635623,0.0031864079254565448,0.0022812472554101957,0.000602759182191477
4.702120117187501,-0.20234141648375395,0.09361832004240808,-0.38931143397613405,0.0019996263925104955,0.004759088147659779,-0.0012462163299932277
4.722120117187501,-0.18501891571749585,0.10623051184774131,-0.3990112652681362,0.0031154475263195248,0.007494688226990457,0.0008445566532721474
4.7421201171875005,-0.19238690461597752,0.09043001406560916,-0.3832989869564431,6.928388275374709e-05,0.005222541754979135,0.0034563201119756407
4.762120117187501,-0.19365351420669194,0.08609090264214359,-0.37613897848075356,0.0028730380060360793,0.007135057975313115,0.00012198808196575229
4.7821201171875005,-0.1945214195013884,0.09364285495924057,-0.3566103152734957,0.0019847689375286494,0.003965199798790729,0.0016214184281973236
4.802120117187501,-0.19994857313936992,0.07183921497413281,-0.3693249563625368,0.002442519581525478,0.0038797079920948395,0.0023543449737108662
4.8221201171875006,-0.19414310438091656,0.07558334023872743,-0.31046519805386286,0.0019921939570172135,-7.417058773679505e-05,0.0015018384488586674
4.842120117187501,-0.19077406608032338,0.08083757776434988,-0.3358854676540383,0.0029167603530220604,-0.00021765768255130384,-0.002858712642950856
4.862120117187501,-0.173870399952699,0.06617046292658262,-0.28680237314215173,-0.00041312019774759516,0.00636135346922969,0.0030476663272370535
4.882120117187501,-0.1675753141437714,0.08107483405145495,-0.30998582601060937,0.002804734847953488,0.0025707544800882237,-0.0002699897108085602
4.902120117187501,-0.18511770169571715,0.06823052885919724,-0.2990010805552143,-0.0006175577266127095,0.010934048882936516,0.0019009239460650602
4.922120117187501,-0.14669126434158905,0.07322018182757817,-0.2988170991485269,0.005203663841180733,0.003287973222870078,-0.00038477908113157045
4.942120117187501,-0.13959604530135816,0.06643333364471721,-0.2821650418071961,0.0013755526384753272,0.00020692980954710915,0.0008033373386043927
4.962120117187501,-0.13177408527632997,0.07030909478727163,-0.28978681841568016,0.003040542173461274,0.00045946268908703933,-0.0006739924642916713
4.982120117187501,-0.11498029709346144,0.06831390332109054,-0.26372522384773556,0.0010707051712222748,-0.002181285355197546,-0.0009315989936538817
5.002120117187501,-0.12623129122339724,0.06721852985603226,-0.27179825260750584,0.0024699867348394176,0.004299848603106021,-0.0008736068697864571
5.022120117187501,-0.1118123976416433,0.05749718264274465,-0.26258711118876327,-0.00015089757719821632,-5.440023141399321e-05,-0.0005892623721894068
5.042120117187501,-0.1273140286975109,0.07603694035028688,-0.28586206559851696,0.004195705550763438,0.00538490830756095,0.0006415451567267121
5.062120117187501,-0.11184905749028111,0.06104724352063023,-0.23668209583528285,-0.001892908969225562,0.004319778655389957,0.0023644992065476734
5.082120117187501,-0.10881715108764049,0.050684304699519726,-0.24771023790818317,0.004592902785265404,-0.0027437531475077836,0.0011695488301375733
5.102120117187501,-0.1021131717114517,0.06362163721567793,-0.24092723124096774,-0.002432608340187133,-0.00179033681531431,-0.000203610132772575
5.122120117187501,-0.1075532716528581,0.05830948055966997,-0.23144540243692016,0.0017957389682331007,0.0009035784862106176,-0.0023688581997513445
5.142120117187501,-0.11017867101880201,0.058896152525756175,-0.2096811055075788,0.0013101365651194072,-0.0031643491753634047,0.0015076556731718985
5.162120117187501,-0.12840651566840428,0.04991244320100999,-0.2142434404816319,0.001791317235388131,0.006840596110746289,0.0004400216787417981
5.182120117187501,-0.11301513879543273,0.056969286076253366,-0.21437803115812756,-0.0003468962391033077,-0.00010258535981183677,0.0020373269228477087
5.202120117187501,-0.12130703577978391,0.04402771690766865,-0.19460461756181124,0.0017096843170565238,0.005191001192539396,0.005017901440306508
5.222120117187501,-0.10655489416757911,0.01820165153428429,-0.1468522489894455,-0.0015181144058335398,-0.001774723937934899,0.0035613554562217097
5.242120117187501,-0.08795337786407575,-0.011672167670279463,-0.08411564652994816,0.0037533083541822993,0.0028674519420007387,0.0003429261439299796
5.262120117187501,-0.07981228032044145,-0.034384423145428465,-0.03092647710508736,0.00182352243850494,0.0011213878710130585,-0.0009631846216214708
5.282120117187501,-0.06877800423627695,-0.0305843645933997,0.043837751610430846,0.003988965691614795,0.010423926427684395,-0.0002758448170562932
5.302120117187501,-0.10737953708213567,-0.04169476839401845,0.10469639327620715,0.003660629025396752,0.009710489103488385,-0.0021571829851750363
5.322120117187501,-0.09588657985078991,-0.053397304250790256,0.17009707478974287,0.005306350654941398,0.00470162150746555,-0.0010435808630795758
5.342120117187501,-0.07659887350798605,-0.025582461471625084,0.16537099210633802,0.006999584078396199,-0.0028838198894597647,-0.0020599983137754192
5.362120117187501,-0.06999380588356625,-0.03002977776461428,0.20822142580537356,0.0026554986283633146,0.007275986770744221,0.000542452446030771
5.382120117187501,-0.08869073310333116,-0.026738677583547473,0.23077197910439573,0.005923219158415398,0.006569288033867522,-0.000870590098236441
5.402120117187501,-0.07768725329041545,-0.014580057245960738,0.24372482842245557,0.00040554993020312135,-0.007638380404035691,-0.0038456872861539386
5.422120117187501,-0.07072468580521238,0.06056499638043886,0.1500204454468881,0.002398683193834775,-0.0005502460799441489,-0.0035930815399758806
5.442120117187501,-0.0655154014633357,0.0720885488361645,0.15194775628985774,-0.000488437560298418,0.008363980897650556,0.0018322704121529624
5.462120117187501,-0.10270907970455981,0.061721663384121,0.11996798759113053,0.002505214437533149,0.0013169910009359414,-0.00014005326212749634
5.482120117187501,-0.07900333253861333,0.08158669892482062,0.06975623193744838,-0.0017209425476880772,-0.015482048158648676,-0.003649396141874881
5.502120117187501,-0.08964044125212169,0.11552564367141553,-0.0015900879382355698,7.546783289278697e-05,0.0015344284192633807,0.0021093433219356228
5.522120117187501,-0.1006137650707352,0.07371649323262368,0.025750950326591936,-0.0011417427890083919,0.007199404771280001,0.008115984825727805
5.542120117187501,-0.0905871560978775,0.02205162689452684,-0.010364836653517421,0.001854935617748662,-0.007288413261773898,0.00042029601404296933
5.562120117187501,-0.06795759935508112,0.07060860986617563,-0.06310679683048408,-0.0006635331383452082,-0.0028715837891355608,0.0020191848615788905
5.582120117187501,-0.051548027804753725,0.053040835498227266,-0.06122636281314399,0.004829120597245375,0.005943487405296053,0.009973247323916199
5.602120117187501,-0.06634547985649848,-0.0032111073843628557,-0.00914005869161051,0.003263803982136193,-0.006060390095512925,0.002684732591819839
5.622120117187501,-0.055005558140882406,0.021614053548783766,-0.01469799376732132,0.002818717920207517,-0.0077272716584418895,-0.0030225953513868704
5.642120117187501,-0.07880386427266754,0.04454615903078485,-0.016942209352699942,0.001990427128353938,0.005650198959500256,0.0033113033499299607
5.662120117187501,-0.09317356761738514,-0.014261139840810786,0.060448859891222374,0.0026724565766405167,0.00942816847188121,0.006079745179969049
5.682120117187501,-0.07814185945838348,-0.03848910072435286,0.08330693491375757,0.0005868567935086734,-0.005498909669047942,-0.0017841996307714257
5.702120117187501,-0.07825655494804258,0.02333633024913873,0.03621733180348141,0.0014500230623260776,0.0024379627016955234,0.0003331685677464627
5.722120117187501,-0.09105976149006416,-0.0013242722159063603,0.10318448689114061,0.0013958347538290817,0.013190226317824603,0.006229332104485549
5.742120117187501,-0.08985980286811635,-0.047995495942224076,0.13185959546824785,0.000991047760618511,-0.010496246962208316,-0.002341994860559315
5.762120117187501,-0.07603664323141815,-0.004445816410634272,0.09326244588403078,-0.0012652821195986426,-0.00316240435301114,-0.0018170700337479537
5.782120117187501,-0.09895101877650303,0.003180256736355099,0.10580590595034954,0.0003888246995616517,0.010971294458930839,0.0032940138731075456
5.802120117187501,-0.09333737289505627,-0.03424143494993995,0.14890816239624852,0.00010866538126178254,0.0013014211068569637,0.0015570214490668128
5.822120117187501,-0.08461899365736643,0.011546609550908717,0.08147432452976147,0.0004968053902164196,-0.008630990035217313,-0.0022560349280920603
5.842120117187501,-0.07614591465801514,0.04512346042071883,0.047329801470697735,-0.0005047573260070211,0.006140780905450612,0.0013420149316560406
5.8621201171875015,-0.10273486638683432,0.015764491404626452,0.06710714262374012,0.000677694574168476,0.005396023424117648,0.0018161156550499259
5.882120117187501,-0.07750043767505153,0.0380677023098945,0.04062179856882818,0.00037554419847170615,-0.010058161460364914,-0.004318077940159339
5.9021201171875015,-0.07153248363916592,0.07527971922474089,-0.017182898759699864,-0.0008608483947657378,-0.006403200688345251,-0.0025607297048768516
5.922120117187501,-0.08144413499830166,0.05763540763066695,0.019562541153625698,-7.24264257094012e-05,0.007667073163966123,0.002280581591385917
5.9421201171875015,-0.07398096118123307,0.0256875975225894,0.039104797093370336,-2.7531330633634398e-05,-0.003229124674491915,0.0006163523950890986
5.962120117187501,-0.05827880520491359,0.06486509805853365,-0.014827535336117989,-2.5044313002119008e-05,-0.004372029780841557,-0.0029411389982128304
5.982120117187501,-0.08076232881346375,0.05439556821955849,-0.0025044540238494217,-0.0017381832160674072,0.012141781385384175,0.0038484619380401252
6.002120117187501,-0.08391735530754205,0.00586484117573491,0.03252218858258851,0.0015823508259924454,0.0053907735734601055,0.003176110397233239
6.022120117187501,-0.07876485232712555,-0.013233442245910701,0.042674528039367395,0.0009646417197115453,-0.008031902656408286,2.6619340105581225e-06
6.042120117187501,-0.07640672379126369,0.015611968369926572,0.009657788116894973,0.00033757642184485497,0.0006941847364805831,-0.00031630275879841654
6.062120117187501,-0.07597778797983432,0.002814565185751416,0.08277731497324528,-0.0005216585145677102,0.005331086476095088,0.002381866534290735
6.082120117187501,-0.07855083654347685,-0.023255415969687856,0.10559859375688324,0.00012342085219838064,-0.005610027653300054,1.99027101685825e-05
6.102120117187501,-0.05448736126047723,0.011060988651895542,0.07392792963409638,-2.540942123169238e-05,-0.005874443287482969,-0.0029677197945475195
6.122120117187501,-0.06858290069497638,0.023897722477387813,0.07381741773445048,-0.0001333468864280589,0.010808835804001082,0.003894092662770353
6.142120117187501,-0.07579974637770646,-0.01414666893854996,0.10916796871553809,0.0006131974449243723,0.004160847759734072,0.00359070056572042
6.162120117187501,-0.07467075763075466,0.010667956103795641,0.08448470345840557,-0.0009225001241058963,-0.007950122574980706,-0.0012057888866485683
6.182120117187501,-0.08102165631351571,0.045866531349175496,0.048184565101252755,-0.0015760937047114643,0.0027241593055581477,0.0008631943881063772
6.202120117187501,-0.0822757983889807,0.030964451931112205,0.06250729986539895,-0.0018958690240927028,0.00846639368771241,0.004022052060498129
6.222120117187501,-0.08403665115940633,0.02116798074461421,0.07402609854153745,-0.00039581512352721525,-0.007282087495077815,-0.000804583164616759
6.242120117187501,-0.07252019209872283,0.05309688598258073,0.009823234819868774,0.00030116492436635855,-0.008663967993022248,-0.0013382089285003678
6.262120117187501,-0.07972255917744918,0.03972674230425624,0.021965576656083233,-0.00010171551356800928,0.005962602081995908,0.0029007310476549786
6.282120117187501,-0.08110448697937366,0.005871435857569243,0.045686690459249835,-0.00021789004496590463,0.0013699443838399536,0.0013379710375728841
6.302120117187501,-0.07660675825798931,0.023057954998117008,0.00615414141811606,-0.0008322856562318858,-0.006949515672919999,-0.0020106437903589978
6.322120117187501,-0.08758646578154865,0.030387195880748223,-0.015283197592355871,-5.1720654636940975e-05,0.007059049787252868,0.0025459943796529044
6.342120117187501,-0.11063643153258414,0.011372493389740912,0.031667577844025775,-0.0011184940527387704,0.010925832206411152,0.004013495896697721
6.3621201171875015,-0.10277096195796312,-0.011520192636737949,0.04814968193607673,0.0003129349958414854,-0.0052006155122819525,-0.0007794056318449573
6.382120117187501,-0.07719503888917598,0.011967813034559677,0.009824467698760714,0.0007709605081338141,-0.005254620638329405,-0.0014055119742295305
6.4021201171875015,-0.08272854604673364,0.02541883181051506,0.04387536661589324,-0.00011167358357793863,0.004479767320254965,0.0012954462807442057
6.422120117187501,-0.0891780307769159,-0.016886250054487094,0.07251007368165996,0.00014760071991094602,0.0016840161879945709,0.0009555233439159369
6.4421201171875015,-0.07310917663835857,-0.008721382813935145,0.0709042165188218,-0.0013036437676181634,-0.007357436515164266,-0.002160916428119321
6.462120117187501,-0.06961417350115132,0.018103229089843652,0.04370783547359733,-0.000744336368957865,-0.0003961224802498928,0.0003607577676848924
6.482120117187502,-0.0937664781058967,0.0008419506092985249,0.07680126739054031,-0.0005428547693717663,0.00929698447395137,0.0030067675927030043
6.502120117187501,-0.07243236290017036,-0.012790341651822426,0.09426745151253611,-0.00030266657128689376,-0.003666346196503024,-0.0008852084571691841
6.522120117187502,-0.05548687431514908,0.01874612683768849,0.05695660743798112,-0.0007101744009877057,-0.004907589450522102,-0.0020761696647882554
6.542120117187501,-0.07516490777313539,0.03447810248024475,0.03319211719511293,-0.0005800696966551574,0.007498715799917335,-2.4395886076860173e-05
6.562120117187502,-0.07549815697650752,0.019559751165823543,0.07503249539358157,-0.0005911170707208448,0.003099475983389574,0.0011886610819055589
6.582120117187501,-0.07230476165610164,0.018258818896351413,0.05397660524784829,-0.0001579372097078932,-0.005506985419423248,-0.00209307696076416
6.602120117187502,-0.06579847192421993,0.05988281265679157,0.017704492309404803,-0.001492863708324013,0.0006272168489622201,-0.0005228453446415796
6.622120117187501,-0.07883926645924436,0.036211773113582216,0.03152091546553886,0.0007015773321435972,0.009838604908086723,0.002326256495423331
6.642120117187501,-0.08525764308732962,0.018897961460408313,0.05390111025426509,-0.0007803124751003626,-0.0010343997198217453,-0.00012127608811343709
6.662120117187501,-0.06335364351003211,0.03635404720425785,0.020213637230024433,0.0003775579493004315,-0.007039829672158834,-0.0015977219573139168
6.682120117187501,-0.07136213362144302,0.037981635901528386,0.013686577537507426,-0.0003371499777155815,0.004006841028650556,0.0019464430687116782
6.702120117187501,-0.07724924726155968,0.00041055989425087545,0.042908173903651634,0.0001522101106584533,0.005744098955182541,0.002290483464426285
6.722120117187501,-0.07382793192039916,-0.002836897797521445,0.05496593632518722,-0.00016592627771277573,-0.004309856270002179,-0.0011420580948621974
6.742120117187501,-0.07035725292935871,0.006187144469457958,0.026265197257770406,0.0001672168977093403,-0.0026843197435025227,-0.00014300442197698557
6.762120117187501,-0.08096242994190336,-0.0029498961164997647,0.04505017118070298,-0.0002208466393182371,0.005423651724422839,0.0022449622174513066
6.782120117187501,-0.07673886114343884,-0.010223972752750665,0.0631628303189928,9.779745308100429e-05,0.0017402415879731392,0.0006595744081353026
6.802120117187501,-0.06536198533669063,0.0012865979596753123,0.0598033978926484,0.0002216652704682239,-0.00229780899165218,-0.0008933944043856385
6.822120117187501,-0.07128469665753664,0.01136258947809357,0.05008858083919458,0.00016699982855793478,0.0009941964443521596,0.0009632708711012358
6.842120117187501,-0.07666669212060931,0.016340889101011186,0.05573481221396583,0.00033389974549012137,0.00035968895959753353,0.0007873196199512358
6.8621201171875015,-0.07288987708078994,0.008467958906749038,0.05463751208460365,-0.0004944760749757792,-0.0008230327411183482,0.000492965984483617
6.882120117187501,-0.07496271311953315,0.021245489118178165,0.0514824594663067,0.0008468252817409402,-0.0007144587686567777,-0.0008308757603449685
6.9021201171875015,-0.0713998227072238,0.021288391246378435,0.05119870622638312,0.0003352713629200794,-0.0009257316252527023,-0.0004242995299931903
6.922120117187501,-0.06699094634881333,0.03593693663499855,0.032927116732965465,-0.00017322582694666614,-0.0009264819520634397,-0.0001625751703115645
6.9421201171875015,-0.06372899909690026,0.028729833798479917,0.04414421710333924,-0.00032138514098360336,-0.0015879875248555515,-0.0003684920032690185
6.962120117187501,-0.06463232186678997,0.031886116621496756,0.02954148891711955,-0.000524547447097058,0.0007014650926849007,0.00012623451211313263
6.982120117187502,-0.0542169029514003,0.03282739618501548,0.029535213463969662,1.4422373615871314e-05,0.000388355244871192,0.002378965637522606
7.002120117187501,-0.05647041472382621,0.027048495247775875,0.02580658293886731,-0.00016107289102095884,-0.0012768134833067068,-0.00045019827262987773
7.022120117187502,-0.0554682541416974,0.03727560568246836,0.022414105337056667,0.0004326796025005714,-0.0012821830985863096,-0.00038159714188597466
7.042120117187501,-0.07063483360376345,0.02572848270696808,0.020611611840614313,-4.5464884269041396e-05,0.0013232583402666472,-0.0012512141569495552
7.062120117187502,-0.05418039419187852,0.022346965507580398,0.03429806028476593,-0.00068944923886275,-0.0007816176216831631,-0.00022929676238308497
7.082120117187501,-0.04699242806357559,0.008773413919682069,0.01712745998713668,0.0010285207111851364,0.002563159242549326,-0.000517384378410264
7.102120117187502,-0.05429847930528452,0.025586996672887947,0.03958625308948948,-0.0014539494755588104,0.001991058606704772,-0.0009064498248579174
7.122120117187501,-0.05367841117009808,0.02697425729596477,0.02732633530547379,0.00013363960670172942,0.002527951817520256,-0.0003524826053376814
7.142120117187502,-0.04973505705109795,0.02035504965734333,0.05034233161656481,-0.000872420325479318,0.0007526397351520029,-0.0006239919527642516
7.162120117187501,-0.04525862335599912,0.02291507600999087,0.044603392130015976,-0.00010897749551090035,-0.00022962280137107368,-0.0004780191039809722
7.182120117187502,-0.04356614667132595,0.01903799022425802,0.046409766236278266,-0.0014533271716065583,0.0010082287823537054,-6.122084972092544e-05
7.202120117187501,-0.04053210366930739,0.030773730823800603,0.04364803132374809,0.00013715605591369852,-0.001997287292886153,-0.001126181139103608
7.222120117187502,-0.033427986824308344,0.03241878363099698,0.034212874873710226,-0.0018652966291683294,-0.000784822408444706,-0.0007642211627909939
7.242120117187501,-0.027408461319454673,0.02056921450802234,0.04455888327786271,-0.0007423463053927542,-0.0006520677715896426,4.930982148508942e-05
7.262120117187502,-0.02840069882865052,0.02015692781045872,0.016434327836080644,-0.0008745932054604747,0.0007935550720340562,0.00034201386994412277
7.282120117187501,-0.030792367858061383,0.023006478800330746,0.022234671555163305,-0.0008776474663615286,0.0009224309387367096,0.0002491377898334047
7.302120117187501,-0.027029156918458128,0.02282408511325045,0.026478896858409106,-0.0004613181821665201,-0.0014160904560403993,-0.0007490613964187535
7.322120117187501,-0.03228018168844097,0.02290033064443613,0.01697870413875186,-0.0007256321858765066,-0.0003278323355646083,-0.0005634924253237938
7.342120117187501,-0.028745923317418366,0.027959081307552307,0.003682852419806155,-0.001361249594152135,0.00132620277554338,-0.00029578005706916275
7.3621201171875015,-0.015097529019296552,0.025961167989432432,0.01605665916554546,-0.0011628556905521606,-0.0007591237031116561,-0.001107253582551803
7.382120117187501,-0.022490200634668663,0.018942039605375625,-0.003269533312791161,-0.00029117790086145926,0.002247059985003774,-0.0008682712134505221
7.4021201171875015,-0.02351390755991707,0.00872747394239435,0.015030740252858806,-7.557233425220643e-05,0.00015786282751995465,-0.0004912884069341432
7.422120117187501,-0.023831846911410326,0.011479284287243428,0.006539226306509064,-0.0009841260051106882,0.001309232620209923,0.00018040287836772767
7.4421201171875015,-0.021410428951237383,0.0070653564784576425,0.022567263220957996,-0.0009141588563130298,0.0006204273617925413,0.0008356998516526779
7.462120117187501,-0.022863117401446836,0.011960164781252083,0.013179920446156214,-0.0008199216369296777,0.0010342588058000757,-0.0006286100797577604
7.482120117187502,-0.026640646274420823,0.012585824979538201,0.010371786831361845,-0.0008152608181644137,0.0005123066483644802,-7.622094863674954e-05
7.502120117187501,-0.03414905232800953,0.0032133795814708946,0.017967848232019492,-0.0017201400390865317,-0.0006521618493684948,0.0004906246891640515
7.522120117187502,-0.025168559807838727,0.00868340931861287,0.028104279138591235,-2.235140288027078e-06,-5.16308566615153e-05,0.0005120695952667261
7.542120117187501,-0.03484627221236772,0.008808521338492385,0.028056506142125497,0.00042794432316962825,0.0004499465033318503,0.0006569441657204571
7.562120117187502,-0.03479631532307147,0.01141373714385782,0.02250190460253808,-0.0006998132854984372,0.0005807333154606649,0.0006688377390593139
7.582120117187501,-0.02906184961167768,0.028890187741704227,0.020985236595744975,-0.0005456649857321541,0.0004503549358460838,0.00041959180947652685
7.602120117187502,-0.033105418310955356,0.011995970096332185,0.01814285676281917,-0.0015226920645331563,-0.0009836297383980018,-0.0006075250872681171
7.622120117187501,-0.03590265383928753,0.020134624332118108,0.013924888396681585,0.0009254295342459844,-0.00028330971885177485,-0.0005601711090615873
7.642120117187502,-0.025220799811881908,0.02299194634330406,0.01867811108650212,-0.0013609014737267229,-7.531623218463573e-05,-0.0006108119003016262
7.662120117187501,-0.03686674327986553,0.02209519361590305,0.024696163767188462,-0.00030905535241088436,0.0003561152556596507,0.00022886771427522705
7.682120117187502,-0.03218564042450848,0.016307783524180195,0.022696239749725927,-0.0008732216442534973,0.0005463027669471175,-0.00023080665578799017
7.702120117187501,-0.023632900809588183,0.025678844055821885,0.010640961994356364,-0.00022199758792300776,-0.000778099130982248,-0.0009433088238124556
7.722120117187502,-0.02824025584493094,0.021872528011365043,0.004111805616936346,-0.001192778627016162,0.00045383375545651804,-0.0001896303097327562
7.742120117187501,-0.025354538316217624,0.016108347495238762,0.015881541555544533,-0.0010070699627106956,0.00022412721647496557,0.00021442779432684188
7.762120117187502,-0.02246898491899848,0.01540662682179347,0.00505257140572542,-0.0002090810389654296,0.0012979635420910555,-0.00027149661219335556
7.782120117187501,-0.031597985635641784,0.014287702218226991,0.00904180687624377,-9.030605319956267e-05,0.001349980913373391,-0.00033619740877785965
7.802120117187502,-0.027225026456592073,0.007769657610565173,0.02275666991212666,-0.0004474431429489799,-0.0014524604801317174,-0.0014358963415979735
7.822120117187501,-0.020197551725619087,0.023711901048348066,0.017402411571586056,-0.0003456125912437761,-0.0005031419152557426,-8.275364628206241e-06
7.842120117187502,-0.028173380611093445,0.019320324020418903,0.0145944287335751,-0.00030485181355661186,0.00188654015358082,0.0009109059993370924
7.8621201171875015,-0.013948064432681604,0.010077295329936953,0.029762582151000805,-8.897343005736016e-05,0.0005464204722650937,0.0006117535760964565
7.882120117187502,-0.026996958131645002,0.010133106095288133,0.014879576132960827,-8.787953236584516e-05,0.0003768448954130055,0.0001416129119527428
7.9021201171875015,-0.008880185981946885,0.027155575498784307,0.018620128648480203,-0.00029527140511199923,0.0015684152075455427,0.00023321446088064667
7.922120117187501,-0.01641615377995659,0.020254320190262257,0.019482379679995797,0.0005529037971077992,-0.0007611584103365384,-0.0008342890198347224
7.9421201171875015,-0.01914544569022676,0.018126910040229538,0.013534350624634794,-0.0010240360534532653,0.0002941680488828423,0.0006445296355406144
7.962120117187501,-0.01989032340437579,0.01843770194404773,0.013176584741157061,0.0016223623380090541,-0.0003994273167420791,0.0006094762639063814
7.982120117187502,-0.015013631441444181,0.014057393552778819,0.0037756976225905604,0.000100179082963862,9.587446419301365e-06,-0.0011527782307306268
8.002120117187502,-0.019925171191009457,0.03364751085732687,0.008157978093617423,0.0006842251107819194,0.001653915599485944,0.0002331932877643304
8.022120117187502,-0.017976920937396983,0.018077354437269974,0.009198637193268392,-0.0006602530634026285,-0.000554217450930641,-0.0010118321680171066
8.042120117187501,-0.014950293362897644,0.024025911979690517,0.00469934384329066,7.360595519670375e-05,-2.1130572635648964e-05,-0.0006481823682065955
8.0621201171875,-0.025434155258529538,0.02347485595979992,0.017960119268108376,-1.2383278450497136e-05,0.0006639131019002537,-9.511146842920369e-05
8.082120117187502,-0.018541549451850273,0.021587511124444504,0.01381915403861956,0.00031120796959557937,-0.00016608932104118844,0.0014555147560351164
8.102120117187502,-0.03129521954864708,0.008906452951499258,0.013623324317010644,0.0003231710669784098,0.00017747968243215557,0.00027073425431344814
8.122120117187501,-0.030046252804610128,0.029283871854292647,0.00878855872890614,0.0008108081073979635,-0.00039663212562644757,0.00030693114955076205
8.1421201171875,-0.01650603676284599,0.02630747537695423,0.005963215748173513,0.0006561758102211145,0.00017918782245223954,-7.433663345464674e-05
8.162120117187502,-0.02363367226945849,0.012550351084581534,0.020674674279670204,0.0009789636656137208,-0.0006880456609795272,-0.0006560116056626278
8.182120117187502,-0.017789840715013393,0.019999018185112214,0.016095247412053638,-0.0013099926587706544,-2.9979068611499222e-05,-3.343635508374142e-05
8.202120117187501,-0.01573720463391324,0.024988778107079782,0.015363628416423391,-0.0003979069168350477,0.0021240125172693777,0.00027564173494403366
8.222120117187501,-0.010136919425695714,0.013938527355913355,0.011072191691408897,0.0007958188429890125,-5.57341757378064e-05,0.0009909871000884484
8.242120117187502,-0.01595801892152487,0.019915925120112775,0.017622495093791997,0.00018089837381435355,-0.001034687075453144,-1.4321532395804543e-05
8.262120117187502,0.009113457602639558,0.0203518977116736,0.008839815119459594,0.00032812783150023086,0.0001968235430309162,0.0017283529753453271
8.282120117187501,-0.007619357624480951,0.024952320123390128,0.009632433216293567,-0.0003065801429080959,0.0008759117953771664,0.0010003076113731493
8.302120117187501,-0.010662338252787533,0.03044805188719373,0.0023766253820744774,0.00048820013644521325,-0.0008235052585434428,0.00033653459137949175
8.322120117187502,-0.004482974630159492,0.03765732063358004,0.011126185532406027,0.0008322349411101773,0.0013362649258749373,0.0007296614574475213
8.342120117187502,-0.012627810747120258,0.034041026535879065,0.006030946115716307,-0.00013033417329729897,6.387197076788293e-06,0.00023768660228264346
8.362120117187501,-0.004078214585880309,0.033133371338951244,0.005790473567203671,0.001756798907579864,-0.0004346998767169227,0.0012987767567693748
8.382120117187501,-0.004481014082198378,0.03316810298721051,0.009823041359220795,0.0011558376985336633,0.0005893014240857997,0.0005136210087475875
8.402120117187502,-0.007443187085789754,0.036011233029799514,0.0025923737362100814,0.0011004874961022247,-0.0012183868448597836,0.0007142569228630262
8.422120117187502,0.007420818103259827,0.025237996877836205,0.009277863424323903,0.0010038608967258944,-0.0008658897135351506,0.0017123627896514064
8.442120117187502,-0.0020623749542917798,0.015053216860174141,0.011017747578440035,0.00046186636849332923,-0.00028448465010338036,0.0006349284682127512
8.462120117187501,-0.005378256950248986,0.02147639747123039,-0.0003198541086912329,0.0012839657900047808,0.0007090038259142657,0.0014453886411151984
8.482120117187502,-0.016896116066816888,0.01781953647628968,0.024023894997237113,0.0002900638638325312,0.0023187923095783873,0.00106147691031457
8.502120117187502,-0.009070686019889581,0.011875337409402806,0.014804913785496926,0.0010142151034766556,-0.0002990768007124803,0.0012821849667858027
8.522120117187502,-0.018967867381200963,0.014560625756521254,0.012972087350840423,0.0005235027850608985,-0.001041342862620919,0.0011450650118717957
8.542120117187501,-0.020555183657627284,0.01641996851889057,0.015311947319061292,0.0021135756869889374,-0.0005926734380527003,0.0004987330674525026
8.5621201171875,-0.028960353128925965,0.022019935408004433,0.024517333451168844,0.00016368413706272387,0.0004324067271432789,0.0012021627684563295
8.582120117187502,-0.0222779128133184,0.017150462256316112,0.01353234008230587,0.0006331127987181564,0.0010056521582226497,0.00024137503923575416
8.602120117187502,-0.02968517766843062,0.008555815786961178,0.016173038148430522,-0.000306168478251179,-0.0015951941013545047,-0.0002443555582644823
8.622120117187501,-0.04189533446577884,0.023972542709222416,0.021466344966942264,0.0008903675234578479,0.0015908795676085879,0.0014628245955076587
8.6421201171875,-0.036572879751702425,0.01728285198137523,0.01677700378676338,0.00025839514655115334,-0.0005250717909508714,-0.0004679730065017087
8.662120117187502,-0.02629491855386487,0.01884220690660447,0.0019076334305395766,0.0008504062525647631,-0.000521707174261677,-0.0003605890270105967
8.682120117187502,-0.026347028832523173,0.025855013783305278,-0.005299675092541995,0.0002654156136781132,-0.0011533980504298503,-0.001169779105510847
8.702120117187501,-0.03220556409606512,0.025744017610195565,0.007389853935807987,0.0012894701171862557,-0.0017638248085521074,-0.0005998362934567704
8.722120117187501,-0.022296092385537356,0.018073224295357144,-0.0006344375660647679,0.0002176864559427064,0.0004751444781066506,-0.0009105697178277238
8.742120117187502,-0.016574852677425023,0.028562088957172417,0.0016383556102638336,0.0008060072516699396,0.0004769542320464763,0.0007402588246104107
8.762120117187502,-0.024008193356943517,0.009488495790034227,0.0089837125067797,-0.0008694808098807502,0.0003294036467312834,-0.0009066185799857902
8.782120117187501,-0.01411026777052483,0.01455465359546844,0.012469526528557536,0.00045514823742657607,3.603075803309104e-05,3.034327338579464e-05
8.802120117187501,-0.010271633029113438,0.026535374641594306,-0.003541332003015367,0.0007487289817287012,0.0016092418013155792,-0.0011974861100885062
8.822120117187502,0.00664354299766899,0.034825033266394835,0.0010581994297667763,0.0012064091980685944,0.0009542057226124776,0.0016861180757073262
8.842120117187502,-0.0035328573033968527,0.016635790746609935,0.014611158520645299,0.0009350789264059312,-0.0008396412728250874,5.815059051635308e-05
8.862120117187501,-0.007837044170141376,0.011453895988001325,0.0172133624215254,0.0008539106881516365,-0.0002942018037993601,0.0004044237696835735
8.882120117187501,-0.004707244525112355,0.026617629360378377,0.013541476395148097,-3.8732401279332904e-05,0.0013010828774237928,0.00046723113579614595
8.902120117187502,0.003939964626171815,0.017062366975798732,0.023278700266757085,-0.0008894724987317833,-0.00023972418778191496,-0.0007065203615900927
8.922120117187502,-0.005236021963664764,0.018926023272620756,0.011272672693186474,0.00044018987198633926,-0.00047433700867935283,-0.00014125475410641682
8.942120117187502,-0.006251037793218857,0.02042022797453743,0.01563458953656342,-0.0006882922154866029,-0.0011015043139135725,0.00023273915696511518
8.962120117187501,-0.014277720541952147,0.023004013657147444,0.011172138810921356,0.0005379391908777223,0.0029908191843907674,0.0007940068039145349
8.982120117187502,-0.017704493175392588,0.014221483094917548,0.004169775819532233,-0.0004655810425156249,0.0005252727854466547,0.0006563367941817107
9.002120117187502,-0.01204813211836651,0.026560544133334613,0.013146862966994213,0.00012870080919971,-0.0013888136723868686,-0.0019168961725180636
9.022120117187502,-0.018281058158886858,0.016621204925003567,0.010248332507321026,-0.0008996279379000076,0.0001575727642094751,0.0004156011672393357
9.042120117187501,-0.01778139402191981,0.015683523283170922,-0.006235696506603678,0.0005033957892526572,-3.9075629136018714e-05,-0.00046209368999489164
9.062120117187503,-0.017631233702057426,0.021136261713943616,0.014659284176220108,-0.0003787145385964988,0.0010038813844287216,0.0010655980580487718
9.082120117187502,-0.015004341857905406,0.025130699532834186,0.007948628856525142,0.00012820349348097195,-0.0019152595594601391,-0.0004738789866279944
9.102120117187502,-0.02274110063440187,0.033286081078973684,0.0018240272884295318,-0.001389959984116272,0.00014112925216659418,0.0007412782062223307
9.122120117187501,-0.03023050594564038,0.025802448326233195,0.005231213015413558,0.0011739297244598552,0.0022713397159167554,-0.00014639040531802845
9.142120117187503,-0.02023227940384494,0.016695826255204924,0.0004912186161662065,-0.00012313652078477626,-0.0016864083175051605,-0.0008222213536366479
9.162120117187502,-0.01691725327048369,0.022709272090518057,0.00027570372385679116,-0.00014599098502413754,0.0011253986619331271,-0.00017755196407789222
9.182120117187502,-0.00793514898892809,0.03263371030581962,-0.0007164139533881623,-0.00020899454318444767,-0.0007763512393072365,1.822515643510124e-05
9.202120117187501,-0.015505146381526915,0.013851515340313673,-0.00415035647921421,-8.7919823044566e-05,0.0009235283650018619,0.0009676174658780731
9.222120117187501,-0.01111077115896883,0.026267789463203392,0.024791498965739386,-0.0006016396004806971,0.00019293205166202745,-0.00033919289647352626
9.242120117187502,-0.022467791256055032,0.03017957283095001,0.0016144249219189714,-0.00013738194745481215,0.001263954668542208,-0.0006340835258047039
9.262120117187502,-0.008215514941613843,0.02117414695136404,0.011302577524549742,-0.0006122726236325802,0.0023204344897525347,-0.00040021600565909456
9.282120117187501,-0.009448751936981685,0.020671829036602977,0.004615157988794772,0.0018179936563299576,0.0004495213189560771,-0.00037340157895438545
9.302120117187501,-0.008440467825638712,0.032796008089180526,-0.006062619364872301,0.00015192311146381226,0.00012633795194045663,-0.0004577885823787708
9.322120117187502,-0.0010546724785573845,0.01668260469844505,0.014684226643932576,0.0015987666194113607,0.004302016959601351,6.350829692745065e-05
9.342120117187502,-0.002789888656081451,0.021874048164637692,0.019871945383873685,-0.0007546095645172417,-0.001875084305664429,0.0003894047362614104
9.362120117187501,-0.0022660324697116054,0.015678655468010665,0.0005938351283409076,0.0006634191215972322,-0.0006589991147018182,0.0003563564046321579
9.382120117187501,0.0037515395481266946,0.019356466828566895,0.003437696434982415,0.0007997696455663322,-0.0006289009275102256,-0.0005016023550882936
9.402120117187502,-0.002339365665104483,0.019511183802478432,-0.0064391594498998716,0.0006622357207305695,-0.0012552856761444283,-0.000837657117866214
9.422120117187502,-0.018050965444029923,0.02866996051408158,0.014497685792245928,0.0006848147034189101,0.0011373987296396048,-0.0007636928814517359
9.442120117187502,-5.826113730502915e-05,0.011206259624328122,0.0048347716776633645,-0.0008474357225340505,-0.0013825158918617246,-0.0005447685309340856
9.462120117187501,-0.021177827761583307,0.030787703525158895,0.011487951474386403,0.0014166890072567326,0.0004411736984727277,-0.0008944418075637125
9.482120117187502,-0.02520139073301133,0.021810519884759128,0.0009305472671796625,-0.0005283001174616916,-0.0012731004435096844,0.001425003137564343
9.502120117187502,-0.02078775439458576,0.012750407512056854,0.013520343790394046,-0.00017325514341054706,0.0007913804598725603,-0.0007357376686144672
9.522120117187502,-0.02533935704549015,0.007938382375892996,0.012711763149793153,0.0006091017939820557,-0.00010814089216646365,0.000540979941443525
9.542120117187501,-0.011915865913840636,0.0293817784866091,-0.0023564054138217956,0.002238121046126365,0.0005565401260067844,-0.0003947276904922036
9.562120117187503,-0.024220503319600076,0.021092165530360002,0.018057709258127264,-0.0011181143174520533,0.0008328078449542429,-0.0005160365845522936
9.582120117187502,-0.013298781986574528,0.015207414946792296,-0.0036673682735762826,0.0014120678510021467,-0.0013616251023815334,-0.002131841297059619
9.602120117187502,-0.017467570203618173,0.030296932238022687,0.00014893198681065206,0.00018166608282956035,0.0002726234135025888,0.00015825922485065232
9.622120117187501,-0.02202885027973452,0.02560623716032732,-0.0015031105868592873,-2.646646763792119e-05,0.0013445963037745658,0.00043042966259787654
9.642120117187503,-0.016210082988025724,0.02010347207506548,0.0211325027525245,9.605465332232163e-05,5.715849113836474e-05,-0.0010691801154990264
9.662120117187502,-0.01530687339405817,0.021488263846135648,0.01567824418312098,-0.0006033655625939348,-0.0028918928434502464,-0.0032373777064394265
9.682120117187502,-0.003909062349922748,0.028993097021045317,0.008002442141182595,0.0003700648662899421,0.000407579644491211,-0.0009488944486705129
9.702120117187501,-0.008256824033877388,0.016538386132161114,0.0008684979037996869,0.001270558937226399,0.0010679488000846177,-3.4617229341333526e-05
9.722120117187503,-0.002580089162888585,0.02824844112041186,0.023421209778532317,-0.001896824518381337,-0.004542937222150392,-0.0015182001461398755
9.742120117187502,0.0007163597125371151,0.026883320069504207,0.011947962099006943,-0.0014997130599270013,0.00023971436939685087,0.00038820039304921975
9.762120117187502,0.011236960347690264,0.01915838423365319,0.00130927829816377,-0.0004650414904371966,0.00031943252785476394,0.0022025268790397097
9.782120117187501,0.000548732672555894,0.024133381729906693,0.005102495402739912,0.0012756289488985184,0.002384581020742924,0.0014790982836702267
9.802120117187503,0.006689521573742018,0.016122152692807246,0.008968360493209626,-8.613071355279986e-05,0.0011210732982940117,-0.0010823637838173951
9.822120117187502,0.00522479971639879,0.02115726397687317,0.0009700418413706695,3.308586487935388e-05,0.0003116078214103421,-0.0002100299781873224
9.842120117187502,0.0063758179768548945,0.023750031840442856,-0.0006612056041029391,0.00037802591271758184,0.0017534496135046308,0.00017518955589417294
9.862120117187501,0.0018511009616486692,0.013134604954994926,0.017878685990401808,0.0011161471258256208,-0.0010457541922820725,-0.0011515037357288423
9.882120117187501,-0.001241292031920895,0.029109626031201215,0.009399022351748602,0.0006687029832983466,0.0020285095019322236,-0.0005803405196747092
9.902120117187502,0.004858622838748841,0.03119205946893825,0.0007761822950963081,0.0005630589688556151,-0.0006378910994670146,-0.0002402004819984679
9.922120117187502,-0.003782675159607775,0.012340352522882384,0.01011014687392789,-0.0008491136668978295,-0.0007579137762563744,0.00017875860393312839
9.942120117187502,0.0018270569109327638,0.028724901486760754,0.0031360790558978805,0.00020963113104971784,0.0003579900836009012,-0.00010842651139641867
9.962120117187501,-0.01316039176073796,0.018221438371481217,0.007284896965367514,0.0006407981230694681,-0.0012775217498741402,0.0016122791290393902
9.982120117187502,-0.020846648527918375,0.01630835481463641,-0.0018795235021213444,0.0014218165007661874,0.0030612886914963486,0.0007570203442357993
10.002120117187502,-0.026285155323835154,0.023848274722129182,0.011453662583545488,0.00018154739756879093,-0.0020835016607930476,-0.0013029309894710122
10.022120117187502,-0.012676823146664993,0.024551666227010976,0.008312295287110902,-0.00038025886775514564,-0.0018434702598501605,-0.0008932805079708748
10.042120117187501,-0.01783183101553338,0.01643548609720821,-0.007144042637027682,7.103116626325003e-05,0.0031657242951287495,0.0019929869562608313
10.062120117187503,-0.012877873874695571,0.009619428084405154,0.017398187712954937,0.0011073871845165215,0.0009087641059525023,-0.0008806607670001427
10.082120117187502,-0.0149729600064984,0.03017357177958288,0.007200270809749997,0.0016566524145630668,0.00145113368371376,3.620987232513086e-05
10.102120117187502,-0.003290579156473552,0.024291184651752295,-0.00103711987854593,0.0004894896882013705,-0.001516598031570118,-0.0005101535811872581
10.122120117187501,-0.009225796416319926,0.035104420902361655,0.0048904500778273454,0.0010246105213684343,0.0028892295448305692,0.0001380598297898785
10.142120117187503,-0.012562839210128062,0.01652226388812756,0.015809235034720075,0.00011559022381496614,0.00040703416201828704,-0.0012307831672303644
10.162120117187502,0.008836518259200146,0.026380064351995677,0.014473014942371385,0.001151212697363896,-0.003441831588474014,-0.002041555746680943
10.182120117187502,-0.009528254187914748,0.011119669613454168,0.014692816230776872,0.0008277770023741608,0.002782355042941788,0.0012924556178661043
10.202120117187501,0.00950401318602043,0.017408732456213223,0.011004126393297493,-0.000625479459188626,-0.00030572753681562233,-0.0007633242971712812
10.222120117187503,-0.016391493771706945,0.012084184710839658,0.005466793865962432,0.0006795446649853264,7.801290819518367e-05,0.0005852758882586284
10.242120117187502,-0.0011918679612965442,0.026119342322942926,0.00896768296717209,0.0017177388384259067,0.0021739040727396975,-0.00012719385654623455
10.262120117187502,-0.010841501356167255,0.023830642402978587,-0.0006844612340183162,-0.0014466409044905026,-0.0013918823601314848,0.0003759217435614658
10.282120117187501,-0.008922627711824038,0.025437491104443453,0.008517941097843623,0.0018286693439576382,0.0005903408771296598,6.518011324653695e-05
10.302120117187503,-0.010167855645685236,0.019297176627443798,0.007587072347437055,-0.00038986636824036257,0.0011905715569125376,-0.0009615456554717341
10.322120117187502,-0.0113414018111341,0.02065831693615751,0.004662873426530264,0.0007804419969418678,-0.0007407447048081786,0.000549240061601534
10.342120117187502,-0.011550253178952028,0.003264560502034679,0.0019355510593668183,-0.0005894934329047152,0.0021920779852554837,0.0009037418157075246
10.362120117187501,-0.014300601054792899,0.02361678219878946,0.0006689530358574949,0.0017857834610007003,-0.0010399809814267131,0.00035258613773524454
10.382120117187503,-0.011795384160729169,0.014682530626836221,0.0019251647504811289,0.0011740021485989697,0.00018192454507181776,0.00022974282832649177
10.402120117187502,-0.01918431589836052,0.01791393441134175,0.0007274731931953316,0.0004663342181729821,0.002185778385866032,0.0009437468070839168
10.422120117187502,-0.01619493256925878,0.018375692683367237,0.015489512294207076,-0.0007089070728743867,-0.0015470092934137581,-0.0006883798238322053
10.442120117187502,-0.010460657711408796,0.029355469182129838,-0.010001284136117982,0.0017455057306065994,0.002122475260699235,-0.0008706928349955527
10.462120117187503,-0.014011661543158431,0.03048498749364998,0.012933020044421657,-0.00026400244062249953,6.143751368016783e-05,-0.0008413669298921118
10.482120117187502,0.002689515837457628,0.02381673090212116,-0.0004361417272343213,0.00025794123407334694,-0.0018556216409445871,0.0005037082688111831
10.502120117187502,-0.007609386001425527,0.028137353558315797,-0.010378704837178312,-0.0007241439555209052,0.004244397189073647,0.0006579715318205009
10.522120117187502,-0.006508530110787136,0.013378751218109072,0.017786211729779084,0.0007891256321438138,0.0009898615830110924,0.0007557737022023961
10.542120117187501,-0.002144213009073027,0.016398958295570726,-0.0005561120367882972,0.0005035391825458962,-0.001767039337293424,-0.0017874999360463456
10.562120117187503,0.008287168140591725,0.02490662647755788,0.0026696400694479153,0.0003118482472240003,0.003178658479307437,0.0014230618640779834
10.582120117187502,0.003278946476642869,0.021137307940842866,0.0016112197463706399,0.00020172924904641526,-0.0018043095155942453,-0.0009357787468688284
10.602120117187502,0.012257832657245404,0.041053481908802106,-0.0020085790514663845,-0.0004450543436268879,-0.001753011784994422,0.0004894989639234723
10.622120117187501,-0.00251668600474623,0.017780312839525213,-0.005006483494964526,-0.0004202683501053184,0.0030436352164263723,0.000773373934018391
10.642120117187503,-0.004409574060521039,0.003999709556088312,-0.005890727846812448,0.0009595380019712653,-0.0022210269864896734,-0.0006015721047285695
10.662120117187502,0.004154732044334936,0.009494772615392012,0.0028815570596449755,-0.0009753514233474175,-0.0008415076824583138,-0.0005788497228394149
10.682120117187502,-0.004446025539438079,0.004240855503377093,0.0008122073273229746,-0.0007770901637091916,0.0017951329297672108,0.0004286419998778329
10.702120117187501,-0.005876744257974909,0.012326454749234605,0.0014878152113357145,0.0006360190157040337,0.0009610127854599352,-0.0016792703707551562
10.722120117187503,-0.006965497246523705,0.031677859626265396,0.0010344704965752657,-0.0006693862351483378,0.0008591356971671411,0.0009908346059043513
10.742120117187502,-0.010393776533519809,0.02254150838816485,-0.001259187838943536,0.00025126859088009303,9.752168495331643e-05,-0.0004938796237123115
10.762120117187502,-0.028303739671505488,0.001493302500775454,0.021136877258522098,0.00022329430416428558,-0.0018043838436160578,3.117391899039351e-05
10.782120117187501,-0.013056096870238293,0.030536738755825125,-0.003916343376320511,-0.0004638658766971944,-0.0015282133223891148,-0.0007448278302724175
10.802120117187503,-0.006440079730168327,0.0241181672774906,-0.0021157095588082543,-0.0009798730698042264,0.0006833851529190011,-0.00037183737954789287
10.822120117187502,-0.020714296862797535,0.016580938995862014,0.020976239438008203,0.0005717393360030171,-0.0028989548607555363,-0.0016606523545517277
10.842120117187502,-0.024380499729293435,0.033686499492598186,0.013578227713792834,0.010004181605765343,-0.0025828013595656347,-0.0008732822628200502
10.862120117187501,0.12251154140676417,0.07720856621839221,0.28054500366803614,0.17036787434069442,-0.11917406680142437,-0.027557712537669476
10.882120117187503,-0.08123017705232533,-0.12189463983931538,-0.18749578959069618,-0.051653759485046476,-0.053143197851804796,-0.014791818915667535
10.902120117187502,-0.048760939695555304,0.08891522982573345,-0.18900544748567316,0.023953820046265888,0.02727392825349982,-0.028945407794497585
10.922120117187502,0.06130909041389483,0.0546793543181499,0.21307974498785703,-0.03986396555226643,-0.05218402164257244,0.01745719029001272
10.942120117187502,-0.08373893345855027,-0.013491972018192442,-0.26675792094304357,-0.012759429849726323,0.044327484080474114,-0.008443372409206994
10.962120117187503,0.036885347176960105,-0.002617854980887536,0.15275970152917553,-0.03926149159246405,-0.003846785312379043,-0.018556091633979404
10.982120117187502,0.015954392385165054,0.10049089263326359,0.02146758957300917,0.016669951844955035,-0.013282992556093652,0.006171135479237534
11.002120117187502,-0.018528324550258178,0.0030943565304602763,-0.009948533699606743,-0.014868416091420273,-0.013021142882303006,0.012574085305038446
11.022120117187502,-0.01328159701422524,-0.0591868483574951,-0.010738478792993673,-0.00820030282760313,-0.0017956746248404079,-0.026538042875819814
11.042120117187503,-0.00388408902032817,0.08034852115820808,-0.024391824358794997,-0.020779361726230048,-0.0013367648413097,-0.004779766891262578
11.062120117187503,0.02134217266787043,0.0218735521364785,0.08446093431815434,-0.0024310251627298065,-0.017686104920522038,0.003840621150681383
11.082120117187502,-0.02387105872402106,-0.0008744626495403864,-0.06428079250050847,-0.008899839870234051,-0.01070881513367962,-0.013134066095632226
11.102120117187502,0.007685924386726415,0.055113131632684075,0.027939048208918286,-0.010477735716859544,-0.004709207018740707,0.005692768416546167
11.122120117187501,-0.016019514282408557,0.042051122208029194,-0.06942298925720135,0.0010134538912836006,0.007679097559059106,0.008075571835586636
11.142120117187503,-0.017839008547558426,-0.0071713054060187345,-0.0292153730863541,-0.01647936655512323,0.03127996250162338,0.0006950655735230802
11.162120117187502,0.0003347428760835273,0.07908269140315823,0.014568270442714566,0.006495339323305269,0.0247894553674702,0.012949973672110272
11.182120117187502,0.04128100488218645,0.015568011613232641,0.13950990582588102,-0.0052676524191417745,-0.013305506982765416,0.03105698461154482
11.202120117187501,-0.0026539862209180214,-0.07407293367652402,0.047504474172113224,-0.0009116168228823094,-0.03691120266475515,-0.015108811497679774
11.222120117187503,-0.029280937079580592,0.012978754139143013,-0.03985797470417959,-0.00993216935287347,-0.02061339612730323,-0.020974841359886198
11.242120117187502,-0.06463944846697674,0.11472355982659697,-0.12251601068792915,0.004827549701972133,0.019855413927829125,0.01270631284823722
11.262120117187502,0.004301480691268319,0.010335360696633406,0.0713754399224152,0.001603643000250467,0.006543759653560886,0.017130598501501042
11.282120117187501,-0.008310409134458088,-0.0021243027314105847,0.002153388533063042,0.006610673740719395,0.0016500251052616233,-0.0017013537027252097
11.302120117187503,-0.023110633717802292,0.05314064403299295,-0.03512010155024266,0.004907317493528157,0.014593047385727016,0.0092993070315286
11.322120117187502,-0.058472117061850744,0.05679484218311149,-0.15535010850087363,0.017177849588938914,0.05740857006304006,0.020409834075013168
11.342120117187502,0.0008705440039864651,-0.03585058546254729,0.08601194691692489,-0.011615195564884464,0.04977906928439087,0.005259825263907885
11.362120117187501,0.051526341681613866,0.011789385089550464,0.13020595251354788,0.009503358640419521,-0.012240566370200314,-0.009703482262943834
11.382120117187503,-0.0303417337633991,0.037389994618751,-0.06546676103456914,-0.003922296166698661,0.007937286461825165,0.00753238388592607
11.402120117187502,-0.014324951028743066,0.016819722297986478,-0.014856477813865464,0.0007591582044709333,0.015673051945796036,0.006300006137481653
11.422120117187502,0.008743823061147755,-0.022271409027956095,0.0753655747166183,0.0006629972739531358,-0.007638472374442027,-0.007889716218708908
11.442120117187502,-0.0297683813053911,0.041437218251626336,-0.07898512934485502,-0.00023644553388076908,0.00896173190917807,-0.0005966377847539915
11.462120117187503,0.017257610288260478,0.03823571953653859,0.04868589270521315,-0.0006855952083215967,0.0028837473018486545,0.006586231141815634
11.482120117187502,-0.0036467889346883855,0.016359219843130476,-0.015562555679853447,0.003207324155984046,0.0031667778554090266,-0.002140796536340544
11.502120117187502,0.011580072452363546,0.015865910328024684,0.014864041038836071,-0.0057787119604001905,0.0012194653571086784,-0.00360147122725748
11.522120117187502,-0.00519889768753113,0.05083642108362493,-0.021607823379516264,0.005379055924959465,0.0038266604161351233,0.004428593170001473
11.542120117187503,0.010982102258847467,-0.0008239190860608471,0.01969042368786692,-0.002862971809497195,0.000818261476281288,0.004434781914472631
11.562120117187503,-0.01105572845714969,0.019907010262625226,-0.024073472232829005,0.001754666757824535,0.004872333845712601,-0.004705903886598979
11.582120117187502,0.005202285796085293,0.03213221972339357,0.03197266843362853,-0.003478752723644472,-0.0008671555433456272,0.0009708661653365658
11.602120117187502,-0.014490846119890351,0.0391328502400669,-0.02465614947089905,0.00472993118400478,0.0042610153328083095,0.0028760780812365624
11.622120117187503,0.0024386227012133574,0.006462955637360824,0.01874417059369558,-0.003970313768552574,0.00018815346974913812,-0.001358093149755214
11.642120117187503,-0.010290993076650917,0.026418815174178052,-0.017977057985199017,0.002028192268032448,0.0017136817858445924,-0.004325892420766594
11.662120117187502,-0.005977386145473493,0.02628606786491272,0.017660353916881057,-0.0015179490845561479,-0.0012683318040439507,0.004381524859003015
11.682120117187502,-0.01560139858906255,0.022484058929356374,-0.015257728775202116,0.0029646014558656754,0.003603371543833247,0.0013314412416069402
11.702120117187503,-0.01438948697855714,0.009043384191568707,0.010450794437649947,-0.0025271457232416425,0.0003863737531125013,-0.001402239414969795
11.722120117187503,-0.006324102803672076,0.021789621638931642,0.0030639634953044765,0.003023885833779943,0.0019008234826829848,-0.00034388526414541566
11.742120117187502,-0.01555716405400881,0.02160130645876879,0.01929460156112096,-0.0009181354637960216,-0.0006031039323121882,0.0036854605708978943
11.762120117187502,-0.012649596218905112,0.009766632433623452,-0.0018004241684921828,0.0013185843457255947,0.002686957124911263,-0.0018678402147096942
11.782120117187501,-0.012596130369171173,0.027889456358252903,0.013595845435022224,-0.0016496644870049205,-0.0026099237825331235,5.692704197883105e-05
11.802120117187503,0.25394341019536765,0.09329815320501568,0.5897476243870393,0.11725727632788613,-0.2962487405239598,0.009539499351410831
11.822120117187502,-0.21030729083760386,0.056340698817514336,-0.5903146157352305,0.03868182014805724,-0.10536303820842516,0.04920723370495368
11.842120117187502,-0.26117233206494994,-0.17337889049443028,-0.7694158378378969,-0.12503343254515661,0.2611766939445351,0.0026704338890086903
11.862120117187501,0.15830933944026226,-0.11909561467714795,0.21322316068102906,-0.06359173245369319,0.15532135441561035,-0.10414554881816739
11.882120117187503,0.17030949432679984,0.34516753827362706,0.6302166903954539,0.056157931811751764,-0.10117723956593189,0.014789531693687998
11.902120117187502,-0.1544393951120876,0.09828738459141792,-0.4267628578565283,-0.0057726500720032365,0.031998279673331825,0.10414442323297168
11.922120117187502,0.03617099615384304,-0.34229144799615036,0.0948894124883014,-0.015136149872171866,0.03551233638367792,-0.06412740505230638
11.942120117187502,0.048983141132597524,0.1093332609982738,0.17969798568087267,-0.002330979730123064,-0.031210046259904443,-0.057127648595423
11.962120117187503,-0.05927150171687367,0.31632853130006616,-0.16531589054854362,0.012060512799723906,0.01851451054140103,0.08555841622787558
11.982120117187502,0.0339196819137879,-0.2089146657098518,0.11992276804666949,0.003932227938647172,-0.0031219757541102303,0.012744601181791248
12.002120117187502,-0.020991600987360564,-0.12507672677376677,-0.04796631967326131,-0.013386573735239925,0.009605658196962078,-0.07736288914756051
12.022120117187502,0.010712171940163833,0.2498238912497791,0.03156338486315732,-0.0016942326456355259,0.005249008626783103,0.02337922130385692
12.042120117187503,-0.005386386530695264,0.050537799559015856,0.0012092094371693202,0.02286914344685041,-0.00879591806569125,0.055287765921780085
12.062120117187503,-0.007595995220376946,-0.2194274969141489,-0.0068994652753665165,-0.017363996952109908,0.013189640720852403,-0.04138000245712542
12.082120117187502,-0.000498119578393006,0.09879732737724634,-0.0011564384299728593,-0.003556279642986577,0.00627977203986579,-0.0329043052008409
12.102120117187502,0.01909886376279437,0.19131724551528623,0.030765073919415218,0.0112443113724244,-0.011254258863574916,0.053220947946731774
12.122120117187503,-0.028730791539977464,-0.10254650702750004,-0.06078408675341473,0.003031118144672706,0.009710735207831929,0.0050241695776482515
12.142120117187503,0.006638104140451184,-0.07204650713218781,0.024992548449832824,-0.016397965393742758,0.007786279005367977,-0.049799741726057174
12.162120117187502,-0.0042092413354720025,0.18632306310127794,-0.0051040185754667395,0.009011173150170868,-0.0005074861632284216,0.019221805887992566
12.182120117187502,-0.018419301848150646,0.013156019207085243,-0.006003016484546809,0.005968251559481033,-0.0016351970959420335,0.036974105927376114
12.202120117187503,-0.021031177371705814,-0.12623577719704734,-0.033355925210486165,-0.006243079945738625,0.007804021171536781,-0.03359849961141362
12.222120117187503,0.0025838392776255607,0.08896096412483144,0.03244344739042645,-0.007037922348056966,0.0013656943912334573,-0.018393614862200723
12.242120117187502,-0.005880600910437342,0.13048427270142307,-0.009111773437589562,0.011706543578435924,0.0015846074356619035,0.03726158750898411
12.262120117187502,-0.01062213941774057,-0.08649348290459472,-0.008195548761940856,-0.002647448028247586,0.0034750758616319843,-0.000550196392524802
12.282120117187503,-0.006883265761786709,-0.016998418414923385,-0.007879889690709088,-0.006948372580800146,0.0051900611146577244,-0.033695171416521605
12.302120117187503,0.0036404002450469196,0.15182225610969854,0.016721978435792893,0.0025830064668972974,-0.0011212589403429877,0.01722188645336807
12.322120117187502,-0.008605153841109731,0.015046118306218253,-0.015714507883681617,0.006895433925559087,-0.00026873276221451057,0.02283847383535196
12.342120117187502,-0.0048701824617334395,-0.0758680215887468,-0.0025417206866309282,-0.007167193610057302,0.003748314011292767,-0.024698957754575052
12.362120117187503,0.010615710650657357,0.07472576673747355,-0.0042011993441024185,-0.001644504943702566,0.004213318792901179,-0.0087811636729143
12.382120117187503,-0.002828015058760907,0.07964026993201476,0.0009172212262693665,0.00584696390883411,-0.00024374919768673173,0.025740145709627574
12.402120117187502,0.00012475487269033992,-0.06392575573128713,-0.00810823361074441,-0.00042119430941897797,0.000670320772909321,-0.004457623113496447
12.422120117187502,0.004939176510967449,0.0007784596234308008,-0.0070164263988991785,-0.0049546559527819545,0.002213118789896009,-0.022637711375289277
12.442120117187502,0.0024579963073292467,0.09292519709286705,0.008935315473694909,0.004108890738539677,-0.0005528594041623416,0.012723952539973956
12.462120117187503,-0.007264615591568038,0.003119599416832711,-0.01352408300457428,0.002593627729657018,0.0018643961317295738,0.012701567885547957
12.482120117187502,-0.005992138093667024,-0.04178628010229848,-0.010246251472033643,-0.005504280236870568,0.006726782448357369,-0.017536654780203522
12.502120117187502,0.0054272560244446304,0.06476099566810056,0.016699257890447416,0.0001606304217577765,0.0011712071675259806,-0.004115674475065088
12.522120117187502,-0.007708414166212891,0.064359892795089,0.0008206708922967838,0.004921471807174773,0.0007425909820887854,0.018593886090538386
12.542120117187503,-0.006347401804404724,-0.044670374003493156,-0.006640757874817654,-0.002353300002055921,0.003516241619322344,-0.005201585520157371
12.562120117187503,-0.009342953994053908,0.012067468082280796,0.0009733602739412966,-0.004689632495420987,0.0015862599136891493,-0.014530044288329358
12.582120117187502,-0.01640347806569321,0.06863417654393711,0.000980625204201508,0.003118761520696918,0.00188485488890977,0.010647568368930126
12.602120117187502,-0.010838722607200538,0.011474650308999574,0.0007811420239634327,0.0013020055141871978,0.0012460846522500226,0.008122367415129696
12.622120117187503,-0.007934700865130876,-0.022136508102150197,0.0014753958656798767,-0.003366162470178995,0.001600516208162638,-0.01250762922422133
12.642120117187503,-0.016717920049956442,0.06050137909293698,0.014572645351680017,-0.0006490750859588264,-0.003116420202284961,-0.0014012694725424866
12.662120117187502,-0.013525566134314717,0.03798131315472085,0.0011634093732911174,0.004704085872687834,-8.709846165218488e-05,0.01297998458008049
12.682120117187502,-0.017033884594875284,-0.027803528636311994,0.0021899098013718117,-0.0018749342509372098,-0.00015283753851429862,-0.0038426959115776065
12.702120117187503,-0.014313541529446657,0.0193250482080278,-0.002585801373147312,-0.0019383003192095726,0.0005514061204198595,-0.008518746156981963
12.722120117187503,-0.012021103630782792,0.06833404068823544,0.005447950019986956,0.002116812316624594,-0.0011056728891543112,0.00796371079826803
12.742120117187502,-0.012654262187527894,-0.0048925245743121635,0.0017984014922493817,0.002600333201449325,-0.00011756368347596547,0.005305638160531218
12.762120117187502,-0.01551305476922982,-0.004394874776732331,-0.008331464404778012,-0.0023775876887919154,0.0006027618069010066,-0.0094385954229491
12.782120117187503,-0.009250498236760052,0.04789316202856427,-0.004898375570059215,0.0005845408624102627,0.0007721876802517637,0.00038819015867237115
12.802120117187503,-0.00734888132657363,0.03737020641425807,0.007275249129642689,0.0024406043435905266,-0.00010133910567991515,0.007828169077381913
12.822120117187502,-0.0009318096086721427,-0.006540049745071613,-0.0016978479317665952,-0.00042964420392193237,0.0039965035371276195,-0.004136776598771781
12.842120117187502,-0.011750440310490181,0.021269805894877494,-0.00266185581640331,0.00023085693665351765,0.001142581827501279,-0.005875669924192113
12.862120117187503,-0.004660748979121286,0.0476147399708858,0.007309165550787392,0.0024815453167277503,-0.003283296581886281,0.006376509495660506
12.882120117187503,-0.010426052690073753,0.006225521247428083,0.001905606523337886,0.001463930740979772,0.0012753214555376307,0.0007514211147280904
12.902120117187502,-0.005192740279729287,0.007459548846565236,0.001918879152134952,-0.0019899992995469624,0.001274437577840504,-0.007466437288154912
12.922120117187502,0.012059837880940574,0.044457168568765436,-0.00028705396985662297,0.0006305468851938642,-0.0028400585371970676,-0.0008331261110175694
12.942120117187503,0.006762088676182259,0.027315135336149206,-0.004946991731876481,0.0011292554220207877,0.0018873193274122225,0.006244721968568212
12.962120117187503,0.005807410296520081,-0.0027140422527957603,0.003115399593018304,0.00031586035556741465,0.0028127994730325913,-0.002193120369946449
12.982120117187502,0.0021972680123377507,0.018603024947770976,0.01256062271481766,-0.0005262093607120469,-0.0004993121380274907,-0.0037377416208963983
13.002120117187502,0.0028686217480799864,0.03810270538305948,0.0062442324930837055,0.0012241951044762933,0.0007303903258505626,0.003868262285111083
13.022120117187502,-0.005047178088387025,0.003578943253241016,0.015999888250931082,-0.0006596977359569097,0.0005884939720094254,0.0014459828952392212
13.042120117187503,-0.010199468318187526,0.01609966992332217,-0.0014877849042250306,-0.0008813641105824881,0.0008333546136870963,-0.005395866048782698
13.062120117187503,0.005895204459439459,0.038781513111817316,0.006058994587026043,-0.00030822655097827975,0.001220904319160501,0.0009704010862796145
13.082120117187502,-0.013513290553594993,0.04133902254641861,-0.005198381449831415,0.0006960571940303654,0.0008457744359969998,0.003453976334104819
13.102120117187502,-0.01047612876726556,0.004045668503852613,0.01267207561188732,-0.001962609790869612,0.001501843947824257,-0.0033603329465434185
13.122120117187503,-0.01698268593036142,0.023095912265232086,-0.005242524562800355,9.538578128536129e-05,-0.002705583562052085,-0.00256743463275098
13.142120117187503,-0.022912920335332123,0.030380014735725342,0.0036938183037562443,0.0005204856399000496,-0.0008340978083753101,0.0028493863119128117
13.162120117187502,-0.023403046855717063,0.0015529518768349604,-0.008000623017847628,0.0012871184572655092,0.0018656427307564027,0.0005791639124077254
13.182120117187502,-0.002184340743253683,0.013800978779594329,-0.012911341589751232,-0.0005090203188557631,0.002418680866048961,-0.0021330210418251602
13.202120117187503,-0.0236888963711585,0.03277821216147365,-0.015347180471227198,0.0017444876278200935,-0.001890516499184951,0.00019079430441156832
13.222120117187503,-0.015049013259733873,0.02645933411775014,-0.015012929683704353,0.002028804097206517,-0.00039640221132153554,0.0017129890013254756
13.242120117187502,-0.018639423479571975,0.014525764606909927,-0.013620780464216744,-0.00014326130256901227,7.504865721663851e-05,-0.0020710902407373123
13.262120117187502,-0.010418937461128586,0.02518264072650414,-0.004357198570297319,-0.0007386423807154472,-0.0008264005988148724,-0.0017131137522466617
13.282120117187503,-0.015791499766852644,0.04076298364832405,-0.012055735068993037,0.0014927662145504496,0.0019207328454101758,0.0021981706188358967
13.302120117187503,-0.007034824770067478,0.006271951148650162,-0.011062781837025401,0.0008535763087939087,7.420123802878542e-05,-0.002733657583158059
13.322120117187502,-0.00219397656311317,0.023479924007083413,0.004875136477999733,-0.0005992697927765343,0.00035518510923622043,-0.0037550487894200653
13.342120117187502,0.001852096607295142,0.031610661019653354,0.008511554903964937,0.00030054930636545156,0.0006888618795692216,0.0005021844069092746
13.362120117187503,0.005886739220086594,0.01405760113396267,0.012148545835852209,0.00020424586392022134,0.003731269148623783,0.001087003736160187
13.382120117187503,0.011007357184595503,0.015443715307751453,0.015013279838001214,-0.0003615524506812367,0.0017307386496130182,-0.0011650757312648425
13.402120117187502,0.01068061535351671,0.026520493420145015,0.009921109479585168,0.0008482186800806041,-0.004433776561075726,-0.0008562599146564144
13.422120117187502,0.009270021017844108,0.026497399018111063,0.01752683941447809,0.0012223554391410747,-0.00019758738270427232,0.0023617971122275486
13.442120117187503,-0.001518585372278763,0.019971960440341524,0.012431103401271711,-0.0009828673324740896,0.00016164654513015168,-0.0002467174536570232
13.462120117187503,-0.00012756279095128476,0.027593012680174212,-0.0027076029980425756,-0.0003901500996288562,-0.0002428287028184303,-0.002847294717489774
13.482120117187502,-0.00012100380112031523,0.03756933426154753,-0.0007808971886099693,0.00024042370345982205,-0.0011587947490939586,0.0019194985946554331
13.502120117187502,-0.0022316980707716098,0.020266238793906807,-0.0010716915492553294,0.0006690065473037827,-0.00032937692510668357,0.001548782352165743
13.522120117187503,0.0009282346828756755,0.009235936519120483,-0.013230565948249073,-0.0007314594833700197,0.00010285086121249832,-0.001643524997117859
13.542120117187503,-0.017656444127102388,0.013349957754381631,-0.010754641520266596,6.734713095651312e-05,0.002570259947937782,0.00018406948276227813
13.562120117187503,-0.017186194996217995,0.017525931598443026,-0.033430998209846734,-0.00024318744148503176,0.0012053629897914935,0.002800300980637145
13.582120117187502,-0.024425971503167093,-6.224265251060754e-05,-0.018141558977137404,0.001044675779723637,-3.814314749606131e-05,0.00037457524176696575
13.602120117187503,-0.026654480393970566,0.01206909335601756,-0.007663537295434155,-0.00019804818082151023,0.000942835865520651,-2.963549488758218e-05
13.622120117187503,-0.043071226440688413,0.025697509213853817,-0.009144284032323828,0.002024622459092231,-0.00039833863258666944,-0.0004191800884586727
13.642120117187503,-0.035413370228321285,0.009825148911705694,-0.007291892900047853,0.0006392564109945693,-0.00023195960483937957,-0.0010767229530270833
13.662120117187502,-0.03381972713527474,0.029010506258692777,-0.012187736264042293,0.0010317515497344316,-0.0004559487422121608,-0.002337022051672954
13.682120117187502,-0.01898379437493808,0.020073938857459755,0.009391839633401367,-0.0012757805475596099,-0.0013850125187611045,-0.0004520115562491858
13.702120117187503,-0.009157692685811928,0.022464962044482673,0.014225720519548898,0.0021762144479262804,0.0017390246042378007,0.0007605783835225287
13.722120117187503,-0.002768527010326514,0.010717483679345352,0.010232826929874645,-0.0005068508723170214,0.001186998329628225,-0.0003524429955792803
13.742120117187502,-0.015321656126538664,0.014786573413897776,0.01771332846995143,0.0005415662127528987,0.00012877977743351406,-0.0011744094075834127
13.762120117187502,0.003140371513891575,0.038252631114076806,0.023338142593031422,0.0003436245490074646,0.00028787335412740683,0.0005228863056657913
13.782120117187503,0.010013409954534726,0.02587372835218477,0.008844608908470048,0.0001680799647161927,0.0013196939200536514,-0.0005914351264210571
13.802120117187503,0.004680246402822068,0.03590267300066353,0.01599221441835431,0.00021178649341911229,5.0596788410294185e-05,-0.0010887176704417315
13.822120117187502,0.002385458852027727,0.026006097850387475,0.0022723419858150878,0.00022787178874448353,-0.001281878692457267,-0.0008358023168685848
13.842120117187502,0.0022093134939352513,0.020460475502220098,0.002047628082999076,-0.00013770682710638634,-0.0015858691341386383,0.0006827255928196763
13.862120117187503,0.005191560662842128,0.01949423146936956,-0.013949674423400995,0.0021711165104658587,-2.903959348591479e-05,0.00013181806962761326
13.882120117187503,0.017499378173806993,0.015167846142994204,-0.020179625979166636,-9.501000001813369e-05,-0.0021485368519202704,0.00028449663315353266
13.902120117187502,0.013283315676402844,0.022434065517729373,-0.024521194264050295,0.0006158084903602883,0.0029091166405140817,0.00011916560728081727
13.922120117187502,0.004778010834649762,0.015827944320291786,-0.01652610012775001,-0.0006515561983058951,-0.0022402923364884413,0.002314908300164472
13.942120117187503,-0.0036707156888722095,0.006841771622148322,-0.008239210191058508,0.0013874295787035557,4.712510316366173e-05,0.0001423407464410251
13.962120117187503,-0.007915696047219041,0.01778220349940368,-0.009513816935690663,-0.00023380809973147157,0.00044019223110773424,-0.00031486013441652704
13.982120117187502,-0.015621780978398059,0.02408541445774428,-0.010440612297028891,0.000332713231265784,0.0010089920420459438,0.00037718306355786157
14.002120117187502,-0.020212425573306304,0.02762909078496503,0.011724281734834325,-0.0010480911988748685,-0.0005656648899623406,-0.0004874623613509684
14.022120117187503,-0.019744589421702166,0.018582508315035263,-0.010065294537759211,-0.000482972008288568,-0.0005802235757423231,-0.0010828046277500533
14.042120117187503,-0.014353728301900083,0.02679349108872305,0.010535253430453409,0.0011515849147422455,-0.0014624364376192606,0.001201716167294432
14.062120117187503,-0.022918547981470097,0.009241936712526704,0.0008421782535410757,0.0006868949480792817,0.0011621694839526226,0.0008850931305803959
14.082120117187502,-0.007632062588352272,0.011410466050203023,-0.0005438647882402623,-0.0001398404740329071,-0.0011851410470010313,-0.000765783991076449
14.102120117187503,-0.010140315642587392,0.02571360395403625,0.0004218688536731959,-0.0005696966268919229,0.0031053512853440575,0.0010755533783842201
14.122120117187503,-0.028329496928129843,0.018015520595055776,0.00812599591944665,-0.0008189598007083452,0.0010651160186662372,0.0014498535392590975
14.142120117187503,-0.02454249526036244,0.025208507811231576,0.021687009154848117,-7.906309461912372e-05,-0.001976450591466291,0.0005917916302117417
14.162120117187502,-0.011337290356343326,0.028499811924484753,0.01742459336375441,-9.029155186458995e-05,-7.208201235761777e-05,-0.0004219073067787905
14.182120117187504,-0.023250927765848438,0.030258454318225853,0.011539224581961053,-0.0013842227352396472,-0.001724158775434598,-0.0012162558019044743
14.202120117187503,-0.012785434015385191,0.027599063262124756,-0.0011658955002636702,0.0005479972432768252,-0.0017984617954256035,-0.0011708834986715025
14.222120117187503,-0.010392412756405268,0.026845944011512586,-0.006361090508574828,0.00041039414921862006,-0.00036129722669331934,-0.00031263055867567283
14.242120117187502,-0.0029485044751472378,0.016626772124943238,-0.00866394659900953,0.0010043413850728939,0.0017314772132375061,0.001029086825185677
14.262120117187504,0.011199607435809061,0.00280292658618865,-0.0071431420462188125,-0.0003212947268437339,0.0016875760833163847,0.0009863653887330016
14.282120117187503,0.01726940648815875,0.01323025205263144,-0.012978315153540452,0.0011953588113688257,-0.0007845785488427887,0.0008685437422952017
14.302120117187503,0.003812538135113894,0.008707644525601497,-0.017341417387704058,0.00013433181609372828,0.001886941046282643,0.003243905405350069
14.322120117187502,-0.016072630521573265,0.006968899405328332,-0.008603600384878556,0.000539335687055653,0.0012840239771681266,0.0009664923190770055
14.342120117187502,0.001019402494377207,0.011216933794638586,-0.006374009397763288,-0.0003468966936864142,-0.0008840498499698373,0.000456149197355893
14.362120117187503,0.012594801660702901,0.02471512731148606,-0.012820846952409369,0.0008250312332841805,-0.0002891556806892615,-0.00208470013265067
14.382120117187503,0.0007070876625145785,0.02963943622588749,-0.0001288333689554538,-0.0013647062783122166,-4.8537570295609923e-05,-0.0004800923642701454
14.402120117187502,0.009020300067703773,0.01679265850206817,0.0051333483793075,0.0005854329816646427,-0.003343667831238333,-0.00011572432399883054
14.422120117187502,0.012692781759590354,0.012944787498052971,0.011307517922712233,3.826174697825764e-05,0.0007377919133611849,-0.0006119498527826602
14.442120117187503,0.0049627236810438425,0.015240509913271682,0.005978386733427127,0.001866923695125571,0.0028863321602832625,0.0012455694534121127
14.462120117187503,-0.007069138399905786,0.013623150686025752,0.004385198613819023,0.0005478823195593398,-5.1346025830454426e-05,0.0022493753870271214
14.482120117187502,-0.015691705359005943,0.029252615288305132,0.007634976094956299,-0.0007781026407907576,-4.950430891867005e-05,0.0016226778724996325
14.502120117187502,-0.02311632080082805,0.017694726577008192,0.013105194925594843,-0.00045961848668556166,0.0028587727284765875,0.0007510422953228522
14.522120117187503,-0.026855512314601197,0.022249568901608265,0.013634285019744946,0.0004995609372663039,-0.0008617913390111722,-0.00016740614894806443
14.542120117187503,-0.032077078477439465,0.027197930160658502,0.013177201843729155,-0.001108076259779111,-0.0011126588541912896,-0.0005685050058012814
14.562120117187503,-0.02306321242120242,0.017184802383946585,0.0007762371165586137,-7.573244540152182e-05,-0.0029783810379667135,-0.0014237768430595855
14.582120117187502,-0.006253930722927198,0.022354058261127126,-0.009539588541273548,0.001127629278810784,-0.0025052357405987457,-0.00035714795625397763
14.602120117187503,0.00636220882548538,0.013508109147241478,-0.009075290605664893,-0.001392469858862607,0.0005499393618677538,-0.001662285739210757
14.622120117187503,0.011694388452138837,0.020971667995789117,-0.016619089650852202,-0.00012539979963509173,-0.0014943883004328528,0.0003022771755143141
14.642120117187503,-0.004765369885760828,0.0228265040423821,-0.007420114629892648,0.0016174502622924415,0.004062829959435387,0.002116184755508327
14.662120117187502,-0.01563759970539856,0.009201828549547725,0.0007395164979541327,4.327396780653572e-05,-0.0020178733762586617,0.0013423412587780495
14.682120117187504,-0.021924150391875882,0.019266619607288645,-0.005192278796489114,0.0008183136784651359,-0.00028059510851910296,0.0009655795285334537
14.702120117187503,-0.01715960379226621,0.015759371754721887,-0.002842791252763721,0.00034391184240982535,0.002005274426728927,-0.00010929208365737531
14.722120117187503,-0.00036335472450998535,0.018390306969913277,-0.002058353631402356,-0.0003929774323824235,-0.0011965202925052106,-0.0010440439267955539
14.742120117187502,-0.011548897497010876,0.015743223154191573,0.007525763927763331,-0.00012954053449412906,-0.003545271693021088,-0.0010209286934950222
14.762120117187504,0.005541227905882392,0.022387686669073984,-0.007063729004612449,0.0006810735460340874,0.002240274342615797,-0.0018327996435831024
14.782120117187503,0.005250891817106988,0.024329910749805537,-0.0011656251242125612,-0.0008128270296068447,0.0013096557908614554,-0.0006670994033697275
14.802120117187503,0.005661011836514531,0.02819176659262693,0.009410292820789338,0.0022928244943659984,-0.0014724810045430772,0.00027783719957970375
14.822120117187502,0.006238769292303256,0.007557838863310359,-0.008200872419421162,0.0021246859715839113,0.0006472580067215991,0.0006057721480229642
14.842120117187504,-3.558084004837596e-05,0.030144734116738063,0.003109564621546385,0.0007203243186582269,0.0026156267907126696,0.003356903795051656
14.862120117187503,-0.0130394862211298,0.03238368499223404,-0.003514976081401964,0.0004342137220175831,-0.0008254223664782636,0.0008068987653038455
14.882120117187503,-0.02737995782863104,0.024985069954179994,0.010184953000779234,0.0005335674828532525,-0.0006155334780656082,-3.619724424960605e-05
14.902120117187502,-0.012385997310578666,0.029663997698986644,-0.0008934727018601123,-0.0009673741156096888,-0.0032592191511441903,-0.0012440249695595505
14.922120117187504,-0.0004898799358442053,0.03170055877298032,-0.00936506342522321,6.900912126933725e-05,-0.005526724389354799,-0.0014827348347657503
14.942120117187503,0.0007510084731203354,0.01949395370392508,0.0014134530251696253,0.0002541598555689572,0.0030688743269785056,0.0011307302580304825
14.962120117187503,0.008342029923549776,0.013385225984996293,0.0023560348914552698,-0.0008236196314546198,0.0018785511012855453,0.0004976552950778425
14.982120117187502,-0.006223740374391129,0.0011420238053040323,-0.0023677487343804803,0.0029106579536132705,-0.0015714613032468553,0.0013855791082685012
15.002120117187502,0.0028592049793007878,-0.006117115147127654,0.027756006296000665,0.00027428415394930997,9.536627106525215e-06,0.0036357723745100248
15.022120117187503,-0.010499927384769708,0.009883845402149039,-0.00595304953336682,0.0007477265085929943,0.0004385893394748429,-0.0002558156002413293
15.042120117187503,-0.017345975091983455,0.02631758555586149,-0.003084660074234752,0.0003783137043914514,0.00019852752678352275,9.002061784956014e-05
15.062120117187503,-0.030370238701044616,0.014835781937591823,-0.013901800214699134,-0.0005341390881847517,0.000493748452512198,-0.0028706935889235606
15.082120117187502,-0.029032984772887172,0.023325315321904523,-0.01073559644210653,-0.0006151558304865737,-0.0019259908296333007,-0.0015668075375347757
15.102120117187503,-0.0026190217497608108,0.033672402983302326,-0.006521926589320614,0.0007307675315234602,-0.0010823895444966216,-0.0014178733348174026
15.122120117187503,-0.004327856249588726,0.009380693326489636,-0.0024315775688399793,-0.00019867582598393974,-0.0004931333823311934,-0.0004969614149673787
15.142120117187503,0.008935953968691412,0.01377710451079375,-0.0020681136593998367,0.0015468401982401514,0.003188444526362048,0.0005905677342986669
15.162120117187502,-0.0004366576812750177,-0.005135794164507477,0.0139474161273932,0.0008269595146004593,-0.001105263432361977,-0.0006192261581907116
15.182120117187504,-0.004401303926312201,0.005811488045830964,0.0014167699488144047,0.0005066355049958845,-0.0031324973989426724,-0.00019538326952585794
15.202120117187503,-0.019257858730771103,0.020418442779082367,0.009419491428070163,-0.0006506986839242012,-0.00034023412616145284,0.0011506485595731758
15.222120117187503,-0.002234528653981141,0.016459440386670073,0.005805306674660042,0.000646987563589582,-0.0035104256262512364,-0.00181813317449738
15.242120117187502,-0.015954535974345468,0.03590379087492262,0.0013828776088997375,-0.002495153556257265,0.0007049896254934092,-0.0026500947820853656
15.262120117187504,-0.00811258067434898,0.03431120979279522,0.0063849595524576325,-0.00021080682811223353,0.001974244389861034,-0.000970037576650961
15.282120117187503,0.0051548908352527885,0.01793006424753883,0.01879857813398991,0.00019385154892491882,-1.1370721169851218e-05,-0.0010072173851491803
15.302120117187503,0.012280456670759932,0.01631977773197163,0.014535034597341671,0.001088215037541453,0.0005549819197357131,0.0012804404704021667
15.322120117187502,0.0186398754214002,0.014992740087321673,-0.014301003007473398,-0.0009925181321954477,0.0025273328566580875,0.0024299717925346438
15.342120117187504,0.006228569680219752,0.005822958889947992,-0.013698384055244752,0.00040282261735024574,-0.0013890138539687888,0.0008150971087904318
15.362120117187503,-0.003114617093460704,0.01327093282003868,-0.015814368811322976,-0.00015065308040426126,0.0021225321967959987,0.0022253568241435524
15.382120117187503,-0.01610561335958268,0.020473650427452313,-0.00923248999372271,0.0013213123721908318,0.0011808878179417732,-1.55916931168916e-05
15.402120117187502,-0.012525748873286946,0.03795260953339282,-0.003795698891485806,-0.0005174482994066308,0.0008038019974512551,-0.0008728281075540186
15.422120117187504,-0.024478309009641326,0.0246151543862428,-0.007537288152980073,0.0010655767208373333,0.002386567231822591,-0.001291543296481625
15.442120117187503,-0.005239429142908205,0.023786347803765095,-0.007042470011329902,-0.0001651428828778042,-0.0004935287265913412,-0.0008384433798559633
15.462120117187503,-0.0004973168488202702,0.022098571858862815,-0.015797165005878015,0.0014320218771521297,0.0023758034612567165,0.0010835782851218818
15.482120117187502,-0.003960908557493134,0.006080857968904345,0.014050169919819396,0.00015028046973835434,-0.00271656320550519,-0.0006066597524898901
15.502120117187504,0.008318539128372056,0.0190272005738059,-0.006649088502755632,0.0005875189380381163,-0.002835396798577511,0.00044831913888102195
15.522120117187503,0.007394602703396723,0.01504888642735392,-0.006497473200688076,0.0006680434063237632,-0.0015861569571464392,0.0011946987848097858
15.542120117187503,-0.02761778033232412,0.022689933022134,0.0059645795171763905,0.0009990430340610368,-0.0023757942451610864,-0.0004463952745455744
15.562120117187503,-0.018469469628439542,0.02699638410177388,0.012265390886488701,-0.0011354826503149687,0.0033849584674893606,0.0006076489846369617
15.582120117187504,-0.025029080260116812,0.02876365073906028,0.022927441824925905,0.0003051261126788611,0.0007105370981501781,-6.683964377014729e-05
15.602120117187503,-0.02473116988616985,0.039335413449694615,0.016698732274887673,-0.000833555101199345,-0.0022567644585835198,-0.001571725522717414
15.622120117187503,-0.010934835124898885,0.017095884821349324,0.00709004846154657,-0.0014994266604389198,0.0005372739507301835,6.561693578983463e-06
15.642120117187503,0.010150607174643451,0.031596685966699414,-0.015061188335277226,-0.00016079440945390182,-0.003680790486466942,-0.0006553682417729561
15.662120117187502,0.01746748436440795,0.01382192313207202,0.0014851942001977221,0.001187962471003729,-0.00013339929753530618,0.0004750776846303111
15.682120117187504,0.005601017658445804,0.016406182992858735,-0.007408249703297982,6.293576510722253e-05,-0.000978850748050758,-0.0002653012887895161
15.702120117187503,-0.008927203063834738,0.02749169390947628,-0.0010158037425672204,0.0004007121320547846,-0.0018174953359422173,0.0007167482270925126
15.722120117187503,-0.02009346826035579,0.015375969868510019,-0.006651220033621484,-0.00040942240342527924,0.0020043323300455323,0.00217735381258661
15.742120117187502,-0.017088006800019064,0.0275064451964297,-0.004991044433410424,-0.0001775166496247192,-0.0007295454546840494,-0.00019232305662775557
15.762120117187504,-0.009641146549361417,0.027333574690687656,0.004365758023600731,0.0011405591929181309,-0.0008764619851804907,-0.0019238937115481304
15.782120117187503,0.0001676969560084923,0.02212827374482698,-0.012401755580915545,-0.0006425031338261836,-0.001671101157277581,-0.0011605743886502695
15.802120117187503,-0.006155571528477957,0.021331132046287303,-0.005046816548263239,0.001103606742497869,0.0009738996669470744,-3.351994668974534e-05
15.822120117187502,0.01361692858635706,0.027089181119975565,-0.006649554355612531,0.0008574412882803837,-0.0011297142214864192,-0.00033593091191060396
15.842120117187504,0.007006559760031943,0.01924609630547528,0.005407402908100716,1.1011927744565577e-05,0.0008274184002866477,-0.00012104692119902705
15.862120117187503,0.0011908496159967522,0.011526686815369423,0.01046515671779564,0.0003385975479372722,0.0023696244170317384,0.002850944600142237
15.882120117187503,-0.0025189017558798457,0.019905468439215306,0.0031507676616006324,0.0009774161651819482,-0.0016055127880237796,-0.00018481416581668677
15.902120117187502,-0.006224340693749151,0.020518762681795366,-0.0021825140292397772,-0.0005759790248258871,0.0007451168848146054,0.0005471723561683124
15.922120117187504,-0.016333112332398526,0.021756083011947144,0.006907130011781692,-0.00010415664826314019,0.0015322744428852917,-0.0008935499471961298
15.942120117187503,-0.022433966878252935,0.032795290760460505,0.007340001618326278,-0.0007086175643880646,-0.004292237549261288,-0.0017883740403049073
15.962120117187503,-0.00908215898899305,0.03954522153233491,-0.008591615221747236,0.0004168669095120383,-0.0011181276363475747,-0.0003766537899714019
15.982120117187502,-0.01098988639866568,0.017949502950127292,0.002898617250714731,-0.0016641928780513897,0.00035679472945519147,0.0011103388308254805
16.002120117187502,-0.0028392098291445335,0.024220779892419237,0.007155034602363114,0.0005353619037417512,-0.001173233604198725,-0.0002793748382092154
16.0221201171875,-0.0011501760459406737,0.014905221517556659,-0.002497454963136001,-0.0012516830257357462,0.0013331483405944434,0.001226665539671044
16.042120117187505,-0.02381064202550553,0.013333731968521518,-0.0037830890950174023,0.0019443527752114717,0.0008228153194038409,-2.7663501976798733e-05
16.062120117187504,-0.01649328607897482,0.023861871256562816,0.0014097318634332021,-0.0003692472459672826,0.0005172890640357355,0.001408008033703161
16.082120117187504,-0.008863504079001818,0.028703117835108708,-0.008739526198339106,-5.1337198947661994e-05,0.001249719142319216,-0.00045285447560593407
16.102120117187503,-0.019127753483030197,0.030459970924493703,0.005217055541743136,-0.0012990096949341522,-0.0011637225893280428,-0.0010376897519213128
16.122120117187503,-0.004049540876531673,0.035638107647692874,-0.006097323203616174,0.0013151900227516998,-0.0020337559006676923,-0.0012034536404269772
16.142120117187503,-0.004437505270113627,0.028920992716973754,-4.705839807351915e-05,0.0014648167000408858,-8.163720908803597e-05,-9.37832109348223e-05
16.162120117187502,0.004904177079038881,0.011002982997737392,-0.004230254352477334,0.00044728077667281947,-0.0016676999151210845,-0.0014599233741420907
16.1821201171875,0.006826811422033807,0.016556688170302435,0.001536763133348362,-0.0007643605814962931,0.001255418195427461,0.0006513634458754431
16.202120117187505,-0.005387307286418329,0.018524134134759423,-0.0007398476941027555,0.0005496661820727783,0.0009139144906311547,0.0015312207811275665
16.222120117187504,0.010819086812928931,0.01898973103432069,0.0030750760306148647,-0.00031241722577401743,-0.0016846584836560773,0.0008290484099749786
16.242120117187504,0.0042142573514101535,0.023771694217455265,0.005571895443266243,-0.0008035229116117589,0.0011643135677703335,0.0016621238490372758
16.262120117187504,-0.009599874516469709,0.029817555535554024,0.010690695202167658,-0.0002152247632435569,0.00017969947140186756,-0.0009652377715514636
16.282120117187503,-0.01313346288817931,0.025718232719045574,-0.006032107563467935,0.0011666813024197324,-9.20190381644112e-05,0.000874666670149988
