seconds_elapsed,accel_x,accel_y,accel_z,gyro_x,gyro_y,gyro_z
0.083082763671875,-1.21424953327775,-1.1916256135374308,0.7322215111210942,0.0861987620592117,1.8222419023513792,0.2257262021303177
0.10308276367187501,-0.7851675905419371,-0.9906201156937383,2.894774055197767,-0.004612687626451955,3.366569784372437,0.14424483413985348
0.12308276367187501,-0.1638584582963668,-1.958844374704,-0.20269894250455914,-0.061423132758980925,3.6596988862720545,0.34150982957186976
0.143082763671875,-0.37518364019887007,-0.9454875894224294,-1.8298895192561193,0.18586072558645353,2.970562493856235,0.15614899128025111
0.16308276367187502,-0.680090200462451,-0.7955350455566773,-0.4029009456987248,0.18954957496808764,2.9838791656421835,-0.28513405502183703
0.18308276367187504,-0.799558615899692,-0.3510469092807901,0.784558875383035,0.14061685052804118,3.936934138961115,-0.6921424400818681
0.20308276367187503,-0.5855365808195127,-0.6892887550108924,-0.2745759705397512,0.3961360999002271,4.604566319331764,-0.8924880980413098
0.22308276367187502,-0.3477620869832157,-0.6712133326033889,-2.5106463393534377,0.8238813476446087,4.17436655016,-0.8351047006749414
0.24308276367187504,0.936343231305676,-0.6079308666764693,-1.2863181544193714,1.2987012676014433,4.004205224063902,-0.9161770895242309
0.26308276367187505,2.534486278287637,-1.5197932155088714,-2.8001160999214836,1.9485362015336907,2.1345238581363084,-0.8613887489830494
0.283082763671875,2.6829698065150476,-2.7598114558865987,-0.36307700310373764,1.8194791311317506,-0.6135803970080592,-0.12356228268220597
0.30308276367187503,3.317020278467198,-3.3984377533500143,4.197278690147298,0.7773719525524998,-0.5172233106595345,0.9639828708107586
0.32308276367187505,2.9719766439303146,-1.8274703530365104,2.310202215589243,0.066857816774704,-1.3266982569508015,1.7564507317957674
0.34308276367187507,2.2224619367177256,-1.3589756916163598,2.569425603698297,0.035354214585612005,-1.4176637278944038,2.038534593648638
0.3630827636718751,1.8809524200612027,-0.7372582157386188,0.7561683462501548,0.08862436386749634,-1.9568601624593558,2.3634912122722667
0.38308276367187505,1.0771910462719203,0.2669111455741775,0.36065686175129025,0.42367704827417757,-2.398959720632194,2.5536078382661613
0.40308276367187507,1.079759288907964,1.0961415688352825,1.8527593214322582,0.48570606305811315,-2.5138081188744987,2.714284100255744
0.4230827636718751,0.6533785642919568,1.1267595989823245,2.577302699237631,0.1611243081774435,-2.527273673488476,2.561505700091957
0.44308276367187505,0.9992688624893682,0.9450383203601034,1.6208257241267463,-0.19699793033390436,-2.852367685104666,2.488054007249509
0.46308276367187506,2.000226816927678,1.5626142824977254,0.9992444412629593,-0.2908929075560432,-2.836672054537995,2.6770122463552344
0.4830827636718751,1.6227653182770436,2.0916869173586643,1.0225171595934959,-0.38549945058567303,-2.232903258713249,2.534948408746561
0.5030827636718751,0.8848861062958472,2.2387073820029673,1.0696333192930334,-0.4932404542982881,-1.4710689529001637,2.0990573738216263
0.5230827636718751,0.5354467544528043,2.196922797296985,0.9967164743348667,-0.6282489876937631,-1.0205470082531047,1.8428967436643646
0.5430827636718751,-0.012546131922911756,1.5679999199507386,0.47661410582999975,-0.7983174505990066,-0.8028647404181007,1.7068567776842103
0.5630827636718752,-0.44234961282709384,1.3850059652599138,0.05924646798764052,-0.9775224910906531,-0.31895099028624974,1.3809691732003644
0.5830827636718751,-0.9166979664536763,1.9449674393887912,-0.8327730031144651,-0.9611065968653147,0.10145906224915355,0.9333501831597347
0.6030827636718751,-0.7867251845659905,2.330901247589943,-2.2497901555289888,-0.6313077785051737,0.010010370499943418,0.6092041210860173
0.6230827636718751,-0.8252301775373464,1.7337061841820807,-0.8137698678151961,-0.33635356724138404,0.1933050245433704,0.5236872720268747
0.6430827636718751,-2.060017308324814,0.3981344882113915,-0.14886780267305527,-0.5172640961573989,-0.004053581841750068,0.29048414896907027
0.6630827636718751,-2.5835423515054408,0.6821963728849364,-1.0994060073931151,-0.7177113808333023,-0.47096593944398146,-0.02440472693271865
0.6830827636718751,-1.5108828595258037,0.44601357392675933,-1.4613322291686717,-0.5435531904269414,-0.39115383299405054,-0.2091099586948587
0.7030827636718752,-1.227760847852598,1.1585619947736365,-1.3016479802145802,-0.08148313758931043,0.11305333571914701,-0.471056760283992
0.7230827636718751,-1.960395979384998,1.066746934667222,-1.3041137958933031,0.16537429585263366,0.18809130222996195,-0.8008164354111565
0.7430827636718751,-1.5596620032589041,1.330459717565833,-0.8147557550114337,0.12783334560159826,0.19574637462136485,-1.1774148401562756
0.7630827636718751,0.12299078658367703,0.9801007907220936,-0.6637036814010436,0.29025996166703,0.38812663088187477,-1.2583125932512544
0.7830827636718751,0.796364469957876,0.8469048212178028,0.14266191742647855,0.3984602227465151,0.7172678354977222,-1.10683625077765
0.8030827636718751,0.5115523133597265,0.8897772558450567,-0.0141983818489238,0.3589422448184365,0.6195729402878531,-0.9732180792089474
0.8230827636718752,1.039972511436517,0.4294717933473628,-0.0648013343335114,0.28035627778788735,0.47938743961699026,-0.8381348315177055
0.8430827636718752,1.1488729518555196,0.5283006325548693,0.2860049771586872,0.10394889109617285,0.564252705360248,-0.721879782622341
0.8630827636718752,4.457933482186525,1.3187388445670916,-5.514499387877539,1.3736719498997094,1.2917831193950644,-0.1493106469232434
0.8830827636718752,0.26805955854178265,-1.3079346633220472,-2.727886691694716,1.7508566219986998,0.005023309934998821,-0.235415447492209
0.9030827636718751,0.5144972446792647,1.1827946520811838,1.6409582315562112,0.8842895261246809,0.2900975014425558,-0.043408908179736624
0.9230827636718751,0.3266462744487739,0.17432309111317112,-2.0022366984800355,1.1181445287856815,-0.04015278516027263,-0.17928281609842273
0.9430827636718752,0.4742488234446765,-0.8983571298770604,2.1204949551988777,0.5263987823793687,0.41270893247946094,-0.3642004654602412
0.9630827636718752,1.1155120399333731,-0.7206470109915978,4.566107731267248,-0.7426896770998426,0.5191982664366386,-0.32874365292237917
0.9830827636718752,2.8608104295509884,1.527798097747398,-0.8585517540812753,-0.5938244905373515,1.0275231697787888,-0.09082808946706247
1.003082763671875,-0.46307847293321264,-2.025967853261775,-7.346556605896293,0.8775716883118537,0.5006998876980879,-0.21976063430412796
1.0230827636718751,0.9218533301127965,0.4941836915771223,3.7588178149762315,-0.3608390999647424,0.12330360086536951,-0.009433466525412685
1.0430827636718751,1.8918360900290099,-0.12896923197743526,-3.1617288167813746,0.23348161755872607,-0.5548418420876446,0.4169344410939249
1.0630827636718752,2.1835383755201225,0.9757727861354193,1.1372973401106843,0.08845070960671272,-0.3838763546555219,0.695217838676804
1.0830827636718752,-2.681345655768177,3.7625615179163736,1.3269843563084889,-0.019872781416778708,0.0670851606805163,0.01737730783342625
1.1030827636718752,-3.126686312917818,2.7061280940594137,-0.8380059191360675,0.4884131949513978,0.45870038613602154,-0.7831941993524316
1.1230827636718752,-1.967528395915114,1.2832365668983814,-0.4503988287871182,0.5946698334636841,0.3171591457057523,-0.7740629767346299
1.1430827636718752,-1.5749038609975319,0.018965331034041157,-0.425639339319286,0.5053036498332937,-0.10821068878721303,-0.5281164651601483
1.1630827636718752,-0.747227587692484,0.42715867938378754,0.12215007469423005,0.3652933539148235,0.0790431684162964,-0.6086504216358393
1.1830827636718753,-0.26172663815037667,1.0100878412466496,-0.016292033687053193,0.33248731994118186,0.19591874064483275,-0.5675579918916249
1.2030827636718753,0.7064180541243881,-0.8226553234022845,0.38649843962339353,0.24887080630513947,0.39674955380262267,-0.10585556253000873
1.2230827636718753,0.9109082328638175,-0.8286929581211138,-1.086500334921103,0.21224306512973376,0.04686044691969113,0.5138123058461833
1.2430827636718753,0.9678106709231417,0.6033270585041809,0.22285117894930398,0.053678145523110676,-0.19577815897273174,0.925579556770074
1.2630827636718753,0.0474864766362226,1.085587735558821,0.41368696323283155,-0.25563360844240907,-0.5043159182222637,1.1134970836236775
1.2830827636718753,-1.84654885534431,-0.12373557837447467,-0.3171815077347141,-0.07548952583886792,-0.24271386899888647,0.827078627475154
1.3030827636718751,-2.737088652663148,1.3481410067943396,-1.1727611071194262,0.23422511233085383,-0.09781975212972775,0.15203759873906178
1.3230827636718752,-14.899462334632883,3.8388965531070225,6.275856511784557,-0.8768196946212786,1.4685124860024539,-0.875695897964681
1.3430827636718752,16.824084026737232,-8.958584645101187,-8.807311870471464,0.9640551213123387,0.4846393863836277,0.4893075025358045
1.3630827636718752,2.6062985406917862,-1.1982039993756977,-0.27644632701306704,-0.5511952055030109,0.03379012469271704,0.010904255067374023
1.3830827636718752,0.12274286136963214,-0.6567479935471242,-0.05277878085239754,-0.248216711666111,0.353749810772372,-0.3104233075740372
1.4030827636718752,0.21512703188357427,0.11498561790652885,-0.42217216931622153,-0.16801786946941705,0.27508177132261613,-0.3614714153285519
1.4230827636718753,0.049297264635343514,0.7354876154828108,0.5306510829903596,-0.016656608409477712,0.17623164725830562,-0.0535624792291681
1.4430827636718753,0.13462832425902901,0.32754048639114225,0.35509055379476545,0.16188483073965595,0.031555296071302995,0.10322931281929762
1.4630827636718753,0.04476410698441563,0.1833024985103171,-0.11686399741813047,0.15328303579131441,0.015002004691194308,0.1629307261564659
1.4830827636718753,0.03481105163651152,-0.3304221761441804,-0.24663313220834426,0.06259881203352745,0.07299022689437061,-0.005855226706012316
1.5030827636718753,-0.0329283725317983,-0.2637647843576463,-0.32401809615534166,-0.05264491787673627,0.15046498339010397,-0.13639231447015135
1.5230827636718753,-0.07632669042117962,0.07209598310570196,-0.22588434584632516,-0.04786586558172173,0.19074468315230977,-0.13441042190040375
1.5430827636718754,-0.07807181945104726,0.2632328114366343,-0.004873512793191089,0.03012516175381234,0.19433720275813193,0.014837959460957437
1.5630827636718754,-0.16454020899056107,0.25362447832681173,-0.10512007050626343,0.0648410761175138,0.19908050554097964,0.16873055225418088
1.5830827636718754,-0.20795514435161322,-0.057730685947565905,-0.34058737450843,0.05962061866664498,0.21726887793546626,0.14154346312837174
1.6030827636718752,-0.1918209923089642,-0.39474358176636737,-0.014255116681365003,-0.1776012607852997,0.26042185985414057,0.008235126397898798
1.6230827636718752,-0.19783130435269125,0.022406813866873283,-0.09919783408219851,0.00039663509063575975,0.2514152759940783,-0.08939132762752126
1.6430827636718752,-0.02407842309582351,0.35491734869542957,0.424601085225899,0.003022738269720435,0.0684888380467618,0.08646217932816576
1.6630827636718752,-0.3879105645511831,0.09044996393635582,-0.590338439421497,0.02659492090682845,0.1942836108838604,0.10626963124467718
1.6830827636718753,-0.14756398300883752,-0.32367914074651166,0.07850833583077686,-0.0548725990328446,0.16240468194845145,-0.047842044252712566
1.7030827636718753,-0.2473008649243498,0.26054836461564185,-0.12640726584340348,0.02166714758406791,0.14151833510062656,-0.015590824715964036
1.7230827636718753,-0.2620830719090429,0.3017306865244224,-0.10101494921896768,-0.011005208587309122,0.1437335660077263,0.12236059973147842
1.7430827636718753,-0.20318291323936774,-0.09520021223338795,-0.19971203272858915,0.011887317096367356,0.16385829669540175,0.01962650361724403
1.7630827636718753,-0.1966918165823999,-0.0758945104203869,0.0321634882573104,-0.03836892632197656,0.14163922018268946,-0.04594361585448411
1.7830827636718753,-0.24551286664608638,0.3347947227436332,-0.18462318735435526,0.015379512823156723,0.15116884313858892,0.057192486204968515
1.8030827636718754,-0.17775992107281208,0.06535951862869803,-0.07117673586095538,-0.006966197932834773,0.145237625665546,0.08099159977358812
1.8230827636718754,-0.1457828398538054,-0.15075511421804777,-0.1313757179580021,-0.010955785976561945,0.1601848034241456,-0.028332355343869426
1.8430827636718754,-0.12455068691985136,0.12794309929151598,-0.025768716212502128,-0.02068737630750293,0.1424745976072607,0.003716130888921793
1.8630827636718754,-0.20653057134774447,0.1697766929519649,-0.11483228251764509,0.017096839658287007,0.14929023039290804,0.08206699772678544
1.8830827636718754,-0.26018859514408366,-0.22940348078579761,-0.03658062560117295,-0.011218040819041809,0.13847372050670645,0.025884695357067854
1.9030827636718755,-0.3612467929301147,-0.24324214933112082,-0.11534632003463971,-0.008555518128915493,0.14986768460405522,-0.027207782463404624
1.9230827636718755,-0.3766845606551444,-0.05017121014644648,-0.011601972538810037,-0.000984832045724972,0.13842668079276832,0.03795175194535229
1.9430827636718753,-0.35839802160713563,-0.17822444056828507,-0.07420279260859128,0.016444783387182978,0.1449856200629891,0.048863560888517565
1.9630827636718753,-0.28791123884741116,-0.3551105428371904,0.0031572885684412744,-0.008777902797782162,0.1413383255169188,-0.018829496620375228
1.9830827636718753,-0.3301268322531288,-0.16097401719174906,0.02750585181371473,0.00860857443292063,0.13533936382007736,-0.0051298831583513945
2.0030827636718755,-0.2682307953301405,-0.11184293794764828,0.03782561841107442,0.014881291944119815,0.13806477078685148,0.04537161991552067
2.0230827636718756,-0.20233730824472443,-0.284614838110367,0.08235242856888382,0.008019665719462261,0.15233080105020522,0.0031897315353063916
2.0430827636718756,-0.13520938007869604,-0.19705045691725026,0.15956969139198,0.0023237184713976503,0.14303774567737804,-0.025497946883241716
2.0630827636718756,-0.08227488139558559,0.042247384833286314,0.15481116271621978,0.012109025073965341,0.1562788425012784,0.02388582810804118
2.083082763671875,-0.03147868044705308,0.0015799443814078257,0.22855308814623695,0.013386614926828555,0.14819952915736406,0.031105359031894354
2.103082763671875,0.019195937147701885,-0.05623540261291734,0.2420105670780337,0.0077208358753375885,0.14370084937876396,-0.0057438025637392195
2.123082763671875,-0.011291263458388991,0.10366614671131147,0.26852939474389825,0.004930649442668279,0.14584691274041295,0.006652227202437084
2.1430827636718752,-0.012770013059113725,0.16422268965822995,0.2610105248283175,0.017166358912751034,0.1444393533824125,0.039559084891276346
2.1630827636718752,-0.10326229077930901,0.04464011240649882,0.2800431020933556,0.006066424959241531,0.14500087071340484,0.015034291348908721
2.1830827636718753,-0.004897852942175849,0.11521581997360301,0.22243812498978854,0.0024312802087175854,0.14920098185604852,0.0020662709369624298
2.2030827636718753,0.0009114955550909319,0.1951862889305051,0.2531483770210819,0.008817683759930734,0.15219688681242,0.027707212321508884
2.2230827636718753,0.04561916650214418,0.13728142702047452,0.24504380490492378,0.010673903009344041,0.14063608190150034,0.0284942876895878
2.2430827636718753,0.07813099015463226,0.08777741011279916,0.21157957382705356,0.002806558437913384,0.1515897963028189,0.010764309238602277
2.2630827636718753,0.04389448219104834,0.16220038366877085,0.22263973828616296,0.00431174465533165,0.14853042289326734,0.015363030332822264
2.2830827636718753,0.11175424662002696,0.17868741472343957,0.19611690511298766,0.010925607255833802,0.14069357501223223,0.04155896767171295
2.3030827636718754,0.04268293264766702,0.04886923154442935,0.173751792652558,0.003850840471598537,0.14797486237163088,0.025304364386433482
2.3230827636718754,-0.042517993525733,0.02212505881724952,0.22191961668311747,-0.0005864625336319024,0.14312625876864102,0.011642832304816093
2.3430827636718754,-0.0847756266911785,0.08074649775472399,0.22449730714532637,0.0032074478384565472,0.1446448117731496,0.033737803791371486
2.3630827636718754,-0.15501284957649838,-0.01893239869732414,0.2637516566246827,0.0011089269385188905,0.14406628503525792,0.03586350110647888
2.3830827636718754,-0.2424356568078572,-0.09658338862498109,0.2639357494273147,-0.00652047022469577,0.1472039517361585,0.0067176344024123215
2.4030827636718755,-0.24979979821309503,-0.014548952677507927,0.29081999108679096,-0.010165165305671745,0.1520693362205357,0.014157425249447278
2.4230827636718755,-0.2876102579969265,0.006883753273224885,0.32767015723286325,-0.004142269651022311,0.14709161445487556,0.030013059764809998
2.4430827636718755,-0.28299075018893116,-0.10675257984359042,0.31344776419307996,-0.011627684440766934,0.15088410471348743,0.016443861202064494
2.4630827636718755,-0.29128840133974054,-0.12152403795782653,0.29924204273484145,-0.017689189787570083,0.15522777279784697,0.0014058427145620834
2.4830827636718755,-0.37246642843609196,-0.09208249338319646,0.31205286303756613,-0.014998805075240365,0.15085785504475893,0.012258375610732411
2.5030827636718755,-0.43652893586397334,-0.14846005020638853,0.2713058722391804,-0.017486775722168387,0.1567370119876563,0.012374494546283577
2.5230827636718756,-0.33163513420342655,-0.1571954393660451,0.24575622556313015,-0.021242856877312425,0.1632209704034069,-0.0010148580608655249
2.5430827636718756,-0.3713085700613759,-0.11969476668421465,0.25207055190914734,-0.020235579926486513,0.1550207949163916,-0.008975390672140782
2.5630827636718756,-0.32094488682336336,-0.0710732965159466,0.18434855729245703,-0.01756858780000153,0.1555481691592192,0.008446643495684135
2.5830827636718756,-0.23919739265573256,-0.08006331526523675,0.11677877135693612,-0.015021877900560187,0.15763231767589642,0.0017262864154351794
2.6030827636718756,-0.26630401294983297,-0.11264315008106777,0.10362540382083088,-0.02426920677637613,0.1579116449611832,-0.013874917651874883
2.6230827636718757,-0.19805165458123736,0.0026210793092509834,0.01680805776263278,-0.013472481325389161,0.15511742837755801,-0.0035921066493380055
2.6430827636718757,-0.21337771701815123,-0.0041213807168803025,0.001566278974567112,-0.016436853362187587,0.15648980622959965,0.00560563310789873
2.6630827636718757,-0.14115914727733486,-0.003311226145307132,-0.045853258253066895,-0.013409563515745359,0.1527162037265512,-0.01014822738129134
2.6830827636718757,-0.16628529818878207,0.0484845840207306,-0.03777046838389755,-0.015261639791466493,0.1515413989649148,-0.01115489748252912
2.7030827636718757,-0.09788704832124645,0.12152378463145128,-0.07268554147753864,-0.007630908575283713,0.1538597683913207,0.0027960920418684167
2.7230827636718757,-0.021186804799124825,0.09011491392081702,-0.08789615416001437,-0.006982884981072788,0.15392407257502058,0.007645590937362503
2.7430827636718753,0.09099172839547096,0.03632882376648317,-0.0769857157733898,-0.0061484083905432255,0.151779589837856,0.0034164870246794787
2.7630827636718753,0.11485907332978393,0.032941386473246875,-0.06286318356663939,-0.0037406229717499924,0.15738784070970838,0.001965430689626791
2.7830827636718753,0.09072413832973175,0.021550616445686233,-0.012667638533842727,-0.0012326627054820877,0.15785262281370502,0.008830864429203425
2.8030827636718754,0.12709332653166994,0.014311766327602834,0.006019675875979761,0.0023787902145482515,0.1598518404220831,0.010876072316630599
2.8230827636718754,0.12281340226254579,-0.009125385040578823,0.05931232344177767,-0.00015722206413008202,0.1685026467165759,0.00811632221683464
2.8430827636718754,0.07177679757662753,0.006416060898296252,0.09827773271497192,0.0027745297727710845,0.16136146955227426,0.01187676553434523
2.8630827636718754,0.12457670956463092,0.010976032760772254,0.0855142362823784,0.003959348068043361,0.16108785719853222,0.019237585096386386
2.8830827636718754,0.11821505264520993,-0.044774461707408564,0.0932833198611752,0.0008486486535537893,0.1643017957042698,0.017941774042914048
2.9030827636718755,0.10947825463497292,-0.040039252080915334,0.10173294325855674,-0.0009095249448800998,0.1638997617957178,0.00962441823591087
2.9230827636718755,0.08877976056355862,0.0045206229505993,0.08334809314303064,-0.0036617171924827508,0.16243024912650178,0.01437598217426279
2.9430827636718755,0.042769545996183045,0.011656475643558031,0.08018189127694729,-0.004116692303797395,0.17131590476549216,0.019100964295311457
2.9630827636718755,0.05625187576200092,0.024357177609834506,0.08271515757590797,-0.0058995949880238,0.16353901735879667,0.014171819640229615
2.9830827636718755,0.031360830787020996,0.033827337275558755,0.023549338193224252,-0.008374993765719567,0.16435293408529825,0.014115809520371822
3.0030827636718755,0.03776209612690179,0.05893370711210801,-0.003419014436273667,-0.008834647723423258,0.16942081866761954,0.020064690432528315
3.0230827636718756,-0.03773776721012102,0.0650845978865106,-0.005123639449159866,-0.008548084883200979,0.1638366132333116,0.019333178269145452
3.0430827636718756,-0.03751390183544266,0.05580243571663702,-0.06185600963364797,-0.009950302096575816,0.16872736002976033,0.0210864260287179
3.0630827636718756,-0.07624709212859578,0.058798622944093555,-0.0484157901042861,-0.012924179929349095,0.16814849329829346,0.023387017939116565
3.0830827636718756,-0.08779167037837927,0.05724433474876732,-0.1003144389029488,-0.0060146446887663066,0.16559693071116277,0.024423285220564608
3.1030827636718756,-0.12792507821041785,0.042353803490170996,-0.11588018451248688,-0.010352255087930909,0.16889008056347116,0.025520117912505278
3.1230827636718757,-0.1506504070824215,0.057112620014208824,-0.13668129037434243,-0.005777543025709659,0.1658490858456313,0.02114486670060744
3.1430827636718757,-0.25605561718671693,0.04869350767435345,-0.13666776911103165,-0.007985863296914144,0.16931456042733636,0.01738353176219624
3.1630827636718757,-0.25147461606006444,0.05147370182871493,-0.1119941578324322,-0.006984628039426231,0.17671283120208806,0.019599708743208804
3.1830827636718757,-0.2178415823190542,0.045259297199139,-0.11399706935696027,-0.0031728487707783767,0.16948009533643432,0.01792253655239154
3.2030827636718757,-0.24155235239564535,0.037910989237937585,-0.1457008345024235,-0.0048316030546827655,0.1792908046087587,0.007536047873016097
3.2230827636718757,-0.1822188218526886,0.08752749079005023,-0.11922365724629182,-0.005862346027937869,0.17927021484185368,0.00908102592768877
3.2430827636718758,-0.1292393833251135,0.10950568509971671,-0.13333286668052896,0.00047234572003690574,0.18079904037751046,0.018388964304102508
3.2630827636718758,-0.11722786253244823,0.08808061443196903,-0.12587326413925692,-0.005556373079804114,0.1826943335954227,0.010877368581525824
3.283082763671876,-0.07667046655751668,0.08527106123245594,-0.1159554059595416,-0.002554327377702766,0.17985408635316316,0.010468707785016143
3.303082763671876,-0.09329338134025111,0.11663109383691002,-0.12877373539081297,-0.003313544430893738,0.18135679072800384,0.020846116246247555
3.323082763671876,-0.10106440745545464,0.06608518094868966,-0.12686917413388757,-0.004805767058978725,0.1855075435494309,0.020010027075740646
3.343082763671876,-0.05451065985163301,0.06944421884215807,-0.14790480800200934,-0.002961949177815299,0.181699281411596,0.015353274372242775
3.3630827636718754,-0.11442056674938964,0.05105063016350185,-0.12616283428784134,-0.006700174568504734,0.18303208245595534,0.01894845665883503
3.3830827636718754,-0.13184292895952793,0.05519943578578091,-0.14170680377177286,-0.004116499108782699,0.1828615957116233,0.019235279041400797
3.4030827636718755,-0.11865809638174375,0.028469357936552385,-0.15836731173623272,-0.004783855345659485,0.18054652058120607,0.01931373001854035
3.4230827636718755,-0.1661611106474438,-0.004721109685523871,-0.1631734793000912,-0.005503226637809029,0.1838885504496622,0.01340901491269159
3.4430827636718755,-0.1424273167075604,0.004001823785984585,-0.13597286657602192,-0.00435202766825273,0.18008492642300133,0.02072409402308827
3.4630827636718755,-0.19618494111986953,-0.02962019795251774,-0.16968257383801522,-0.001508949380244545,0.1819226041608968,0.016007523083991032
3.4830827636718755,-0.10111489310812323,-0.02893071998783989,-0.15578452984651697,-0.006398365655111288,0.18548232505590825,0.014027856938277421
3.5030827636718755,-0.07191981114705,-0.0015218989638664086,-0.15174064744702476,0.0007847392890562704,0.18214671195448578,0.018428156205765874
3.5230827636718756,-0.06361310608101525,0.0121509443921681,-0.12544181791020004,-0.005465428685138979,0.1852742184759125,0.021074061367746307
3.5430827636718756,-0.02539170689760064,0.02140007247648048,-0.10390223652714352,-0.0023994450891241977,0.1842701156157508,0.020309821373434206
3.5630827636718756,-0.07758225622065208,0.03477009527679302,-0.08272344355110513,-0.003854010366795235,0.181749075990146,0.025293845863486528
3.5830827636718756,-0.15870935532355276,0.009139006507933487,-0.08125998876112402,-0.0028850760257379763,0.18723829945636128,0.027427818874150727
3.6030827636718756,-0.21176914568117658,0.002687207806778159,-0.04946279515090763,-0.0042491447833193936,0.1845686227805699,0.023125142678649166
3.6230827636718757,-0.22937460059627315,0.024169361172454093,-0.048133663024938364,-0.002615947120450115,0.18216275974070387,0.023592316576915625
3.6430827636718757,-0.27135227989570065,0.042188820612182154,-0.05251329597102489,-0.004098508227648015,0.18525364510604767,0.026148614722833585
3.6630827636718757,-0.2827111733928403,0.0031080687579528054,-0.01771174852135068,-0.00208566392735401,0.18556622275401433,0.02629574766836691
3.6830827636718757,-0.23679198344064903,0.03382097753777242,-0.049872531320385584,-0.0015325942383248982,0.18115862931186802,0.02178779806073085
3.7030827636718757,-0.2623888899610655,0.016730941711858717,0.01394443173912885,-0.006618902744577634,0.18705287304314347,0.02356391998304047
3.7230827636718757,-0.18936211163211178,0.02364499690383414,-0.02026456173987249,0.003013877204491035,0.17783759496010668,0.02582230948911834
3.7430827636718758,-0.20893258634709508,0.016711930623331976,-4.7355627156881064e-05,-0.0064273011168988385,0.18104302839956843,0.023602175115252057
3.7630827636718758,-0.2153553495012135,0.009837416170530562,0.003760912066400931,0.0016152200757161151,0.18391679263000416,0.022071704591221274
3.783082763671876,-0.20496981714854498,0.00495579804646409,0.016338540817783503,-0.002191628179498697,0.1744962422440289,0.02568599879838249
3.803082763671876,-0.2430362847499945,0.012905450941248424,-0.002911939436134688,0.003071249921707782,0.18216600862217053,0.025944831297818213
3.823082763671876,-0.25677353323637914,-0.010364570202807013,0.05083447211376075,-0.001623891061274586,0.17443874627781816,0.023646534876483587
3.843082763671876,-0.332687990677853,-0.0005184558587474476,0.057218423548330614,0.002453566161073682,0.17993975431036835,0.023300710443221104
3.863082763671876,-0.3546159383573599,-0.01385113123737337,0.08856401466109573,-0.0003605469662911362,0.17410444639826148,0.025070956891262788
3.883082763671876,-0.3417924074728286,-0.00577464925256991,0.08098511788520152,0.002803506704979835,0.18364931509969654,0.025433655766228795
3.903082763671876,-0.31363123896178446,-0.012584075300791617,0.14981951537832316,-0.0016050447630433632,0.17195080586101802,0.021426348989775208
3.923082763671876,-0.3366807362289308,0.006485241641826375,0.14836347639669567,0.0038461161211705234,0.17303697405046975,0.020141105435970228
3.943082763671876,-0.41522982984628654,-0.016001459104219653,0.18094994617947469,-0.001162882494452507,0.17522364699976475,0.019841522947471175
3.963082763671876,-0.3740260195491523,-0.02408615875011661,0.2044306085603726,0.0014971468053763442,0.17280136218586578,0.020389893324481736
3.983082763671876,-0.36304393902815096,-0.016314263901717346,0.23550867774321246,0.0013026551413304547,0.1690023209748217,0.018070016949668758
4.003082763671876,-0.3974947818667285,-0.024451165035543575,0.2565210726800396,0.0014630690453524403,0.1704573303808801,0.013120323477479802
4.023082763671876,-0.36973647392548703,0.012586074469181217,0.28798088926834975,0.0021103072996573845,0.1667677661614253,0.019553793870051902
4.043082763671876,-0.3795007112819424,-0.001535144128087292,0.3160746678547811,0.0019348333763317186,0.16710459662083868,0.021482507881805134
4.063082763671876,-0.41746196721405293,-0.04761262478573774,0.3222907658942241,0.00046613147125156614,0.16384309749172,0.0126651429657226
4.083082763671876,-0.3816483571446852,-0.020527457727313562,0.33008337042616254,0.0029060604889896164,0.16486718547359372,0.015539193455283993
4.103082763671876,-0.3568378298743699,-0.03777864012344887,0.3725593198531957,0.0016290632187367024,0.16484542643727634,0.02168529932100823
4.123082763671876,-0.35277575399849126,-0.027660509284970974,0.3859578079101122,0.002720581866235857,0.16245738087690792,0.01673633721637104
4.143082763671876,-0.3951091861125455,-0.07187018600484889,0.44668318839430743,0.0011976444159400078,0.15988357451563015,0.012461640703257953
4.163082763671876,-0.39134616732767985,-0.06342226558700263,0.457373037739623,0.007874721155842116,0.15662718167376571,0.016900578998515842
4.183082763671876,-0.404861278606582,-0.0848248246469284,0.5219639512843017,0.0014339134062268664,0.15432159451964736,0.018180078760622637
4.203082763671876,-0.37800726401345586,-0.11205228244851667,0.5394630366742802,0.0032890347000532716,0.15391378367704117,0.013846501039324274
4.223082763671876,-0.4075072224598993,-0.11033424633672054,0.5911975624356196,0.0023050990502995914,0.14756795954416452,0.01285259796900209
4.243082763671876,-0.49028097461097203,-0.12067748718107384,0.6252886099565572,0.0015769938053373077,0.14671419709986472,0.013649708365689947
4.263082763671876,-0.45193304170250365,-0.10707613552130513,0.6487767780884356,0.003668254099992893,0.14216663470418564,0.015207910139894682
4.283082763671876,-0.47695806421932674,-0.1269853414636618,0.718152762136277,0.001074841216632003,0.1449268305812843,0.011465428965088016
4.303082763671876,-0.45603323753643027,-0.09544771824237964,0.713438820075933,0.002378500746999412,0.13754200706317013,0.009405352854102138
4.323082763671875,-0.4992552593651094,-0.09417867019109402,0.773143002968809,-0.0011818303651290228,0.13767212344577068,0.01368729330984422
4.343082763671876,-0.516156230099376,-0.10796985492772362,0.8321429447397007,0.0028342576434220944,0.1277479077811355,0.008319896977305091
4.363082763671875,-0.48002144277003284,-0.10903434002687741,0.8175561056260399,-0.0007461542944334065,0.13137460209002608,0.007754541744428609
4.383082763671876,-0.4610170660001857,-0.09953262857939753,0.8256103142246951,-0.0008504631807948912,0.13471354730709795,0.0070380343665175935
4.4030827636718755,-0.4713774153159959,-0.10043363585036037,0.9167779810087969,0.0007152120717566254,0.1080662943632393,0.0051850699368748395
4.423082763671876,-0.4502636767739256,-0.05850760036271499,0.9020897171894237,0.002405252898529224,0.13020042958666048,0.013539467085071722
4.4430827636718755,-0.4868507966853473,-0.09807805809676276,0.9492134495110173,-0.00024746056991034664,0.1126809546056633,0.004898808229491634
4.463082763671876,-0.4143321970196471,-0.10195017366427493,0.9679763434079036,-0.0012289151799969402,0.10076930942883305,0.004278379246088488
4.4830827636718755,-0.32567869397851135,-0.04459515234732408,0.9350472612544806,0.0006080287290702604,0.11674479530486999,0.011616105068055802
4.503082763671876,-0.29633326072089955,-0.11020077627102484,0.932220000886278,-0.006766810612655593,0.11168946358892358,0.005398087182773219
4.523082763671876,-0.20601484701747785,-0.00247064489014527,0.8539470955349927,-0.002634275598144498,0.08935152420355758,-0.005099934135144282
4.543082763671876,-0.17921906923308792,-0.01684135291614068,0.8415824054656437,-0.00968447211748795,0.10814322172199843,0.013931847818252213
4.563082763671876,-0.11015475677278327,-0.010728495211189926,0.7463609195436564,-0.0023483654888020204,0.10489422218197203,0.007016426126686496
4.583082763671876,-0.07782435808457387,-0.026152065356694152,0.7734580257721689,-0.017189061729427142,0.08215632882858513,0.0016938979131211841
4.603082763671876,-0.1073409049552421,0.03904777602030874,0.6322832362424254,-0.0056633131858216,0.10291371734258041,0.00976640130276812
4.623082763671876,-0.05827165339154591,0.011266161317611087,0.6124056361388629,-0.016419408347486602,0.08808133301808263,0.01724173978964712
4.643082763671876,-0.11564501264279381,-0.007840654682481176,0.5209718623119006,-0.007135280563010795,0.09071266466629499,0.01041165610515996
4.663082763671876,-0.1341933800108868,-0.024576964778034303,0.5279795474869323,-0.01609866298016842,0.07818320941995054,0.01878551152353416
4.683082763671876,-0.22666421892873054,-0.014437334877465475,0.3988032880554568,-0.0065297788264116795,0.08288799110749846,0.02131343536070203
4.703082763671876,-0.28950485241307167,-0.04269765982277066,0.4281463247082553,-0.01704138274218051,0.07668713774834772,0.022776752854408035
4.723082763671876,-0.36619615838812947,-0.0492721583402749,0.35519928207195395,-0.004723836379335805,0.06802065910393004,0.017326821812703466
4.743082763671876,-0.4016193992589652,-0.059148213159351794,0.3550034035200592,-0.015680690061506294,0.06386964451383402,0.02359952584538869
4.763082763671876,-0.4393817239600687,-0.07743182973681875,0.3312187969491889,-0.005315885755422651,0.06646045889446853,0.018701947769427987
4.783082763671876,-0.45586154778441984,-0.11576127220064195,0.4100425716309901,-0.015172923059646298,0.06560368613008247,0.022381396897628
4.803082763671876,-0.5219132767729804,-0.06951309156858786,0.4062544739577781,-0.0012757383814619543,0.07642421189896682,0.020850457766828173
4.823082763671876,-0.46826084348672564,-0.2956183975992189,0.6970303428068342,-0.015871647237257404,0.0605155007352326,0.024529040027670413
4.843082763671876,-0.6283282136465665,-0.24883133960091783,0.7149082941244712,0.009933052358231442,0.052946374117175274,0.009980272925599356
4.863082763671876,-0.561181128105883,-0.22191864696469854,0.8809404976608523,-0.010125316745861018,0.03746451701656885,0.017911298469027392
4.883082763671876,-0.6488278826530277,-0.1957505686078226,0.8447262279923039,0.016532519135231356,0.06606063056872342,0.01579693738389382
4.903082763671876,-0.6127660219868089,-0.20680821998421953,1.0490597678327336,-0.005169131257828737,0.01788250051827076,0.003856049714432316
4.923082763671876,-0.6236611485619868,-0.13445903054558608,0.9926747648608237,0.01261588944501553,0.05173664015083686,0.010468512525796149
4.943082763671876,-0.6782098119803238,-0.1014670045610053,1.090306925886977,0.0006971565001140246,0.02713818892764913,0.008190447106699342
4.963082763671876,-0.6802300008327683,-0.14749330245730033,1.1705318287439679,0.007040898595257905,0.0326229297854349,0.002251484144136641
4.9830827636718755,-0.6028167426910842,-0.1223184667204881,1.18561381741971,-0.0008562540541212549,0.037705909053705855,0.009058631163338953
5.003082763671876,-0.6795991976374405,-0.1524386540441073,1.3067016510577836,0.004911116802998938,0.004938613421410892,-0.010012404873216502
5.023082763671876,-0.522066308007762,-0.11562367823781239,1.1801213452202721,-0.002093715806964284,0.034729949222378896,-0.011364410568550549
5.043082763671876,-0.406877880659667,-0.08313941424597592,1.109957631148372,-0.0012631897427781925,0.042656611494358156,-0.002533944411831171
5.063082763671876,-0.3293934706628233,-0.12551440180054976,1.2502455171806182,0.0007729885937584776,0.00163341450216841,-0.013855430709293157
5.083082763671876,-0.2541251899529039,-0.09976520130639571,1.1245070370881842,0.004761215092995971,0.016204109188972266,-0.017831842021565538
5.103082763671876,-0.1429565098658076,-0.06815868863758602,1.0582334879335016,-0.006577021020454094,0.03657198741723699,-0.005810124961488947
5.123082763671876,-0.04795406736419974,-0.09806360000509268,1.116163774806021,0.01002686357488485,0.03344933141861501,0.008771693050964877
5.143082763671876,-0.03937864727527825,-0.0886264971846401,1.1196210291372926,0.002214373604313665,-0.07915126397478073,-0.04476324959760915
5.163082763671876,-0.022354870598903752,0.10693296714883764,0.7910462043002361,-0.005658874942887308,0.06609309857146692,-0.0039378182039589565
5.183082763671876,0.030217206767818937,-0.04287511849594112,0.9750128312375691,0.0021688173149404773,0.0431994990699301,0.013233661544499837
5.203082763671876,-0.015483166422426146,-0.19227648584741394,1.0704670017236164,0.0044610710084417885,-0.07981948240324575,-0.03564835783216825
5.223082763671876,0.02151711459249743,0.08683700565459154,0.6089020948000209,0.000971340505132584,0.03824337505633982,-0.0011264089316045149
5.243082763671876,0.057017244146575094,0.020738277457384463,0.6470353172159194,0.0008022591017194806,0.012479779966963882,-0.0016431901173826209
5.263082763671876,0.16122496985527954,-0.006482597453097114,0.47330064652719317,0.0024498195176388023,-0.03857768005589413,-0.013347800369609619
5.283082763671876,0.16659790896003202,0.12747826606934665,0.24832843017367473,-0.006231950525365973,0.026993679467496073,-0.0029867399363992632
5.303082763671876,0.21351206908925477,0.010191751549248566,0.3991197716806952,-0.00393848261912455,0.00118867361231209,-0.006894320742190856
5.323082763671876,0.1871618703373675,-0.0430224426293386,0.3799782904206377,-0.00020102626940438274,0.01080925068151342,6.102356872130795e-05
5.343082763671876,0.18836318423427925,-0.020335973731173455,0.332564394546792,-0.0002985857537484682,-0.006775352479423012,-0.0035029506923644482
5.363082763671876,0.07118301072811667,-0.0927191989857735,0.39627893502676526,-0.002580412213565117,0.018627231707812608,0.009145392692233223
5.383082763671876,-0.057192690210611456,-0.16143013288682653,0.5008756161278614,0.006311188464839786,0.014870780924226787,0.010298754374751955
5.403082763671876,-0.17144723022040195,-0.21873979598461368,0.6403491784738573,0.00462595002933796,-0.0043025858351117136,0.00597153240376709
5.423082763671876,-0.2588005737748868,-0.18726875290543094,0.6392538082040137,0.008686387664791819,0.022130806670798274,0.005006336350851446
5.443082763671876,-0.2901469994833968,-0.23100415759385817,0.8852995573629366,0.0026181837868449295,0.008946398848999695,-0.0015483369108053515
5.463082763671876,-0.304232041478668,-0.2125899681605156,0.9931401588503088,0.011885486343923533,0.017809272437952477,-0.0038937022084854374
5.483082763671876,-0.20821036121303352,-0.22880810991385633,1.0711327365830692,0.009706490835369123,0.005672113223762764,-0.011003758173022977
5.503082763671876,-0.1213389609443077,-0.19777639276884992,1.1148296370552397,0.0110520169043774,0.011216136978269283,-0.012160941229830856
5.5230827636718764,-0.02397045946587501,-0.1783146485444761,1.1956288734036553,0.010888920811607979,0.010394137230722082,-0.011198318519844187
5.543082763671876,0.08807734256608607,-0.1348099545716732,1.1619965768896154,0.013289824926661222,0.0019396802840904426,-0.011305809848848826
5.5630827636718765,0.16700452514123393,-0.09728820921654628,1.1458735515622902,0.0070208937024833044,0.019198266385552148,-0.009681310951906661
5.583082763671876,0.19300894161554222,-0.0692367119533693,1.1595387128649388,0.0058996805143842765,0.009206080859556983,-0.012022366429680829
5.6030827636718765,0.19669341270509638,-0.04060543281654224,1.1341941448426973,0.006006231744619863,0.013670832640063513,-0.008889657710859122
5.623082763671876,0.25522550102043273,-0.076850542376968,1.0969784891141363,0.0011769916524317185,0.02286600643924468,-0.002375337720186266
5.643082763671876,0.2803523009379607,-0.0829834739137782,1.0932312879501103,0.004104349745490465,0.02079215098023271,-0.007972760999563594
5.663082763671876,0.3021438027048192,-0.08372864994253965,1.1178119395059087,0.001497400075513411,0.017399681113015507,-0.009983667350864622
5.683082763671876,0.307609445078082,-0.04941919795375626,1.0432408658224939,0.0036380019563215437,0.03493514450129852,-0.006059913302764785
5.703082763671876,0.322698263607275,-0.08915473506193973,1.0821372956180026,0.0012022315614300377,0.0337060169639777,-0.0032892947762140543
5.723082763671876,0.34324947936306216,-0.09316376514286051,1.1098883938714061,0.008202639772263431,0.025578299765108822,-0.009047690936795645
5.743082763671876,0.37287748832263484,-0.07746605089107017,1.070982214253585,0.0028966645951140914,0.030933654916706528,-0.0063619542141122734
5.763082763671876,0.36301295870225836,-0.05050343975776845,1.0506994991496301,0.006192704179136238,0.04149675871277415,-0.003935816509607442
5.783082763671876,0.4583504170449662,-0.08110269804955053,1.0980610388434384,0.005509380761241824,0.03652377197987642,-0.001445626634940221
5.803082763671876,0.47297860682963094,-0.10127785721439587,1.0597670194123923,0.008438896260194098,0.03605195272841753,-0.0025206512017096417
5.823082763671876,0.4902637366362752,-0.11894133958612692,1.0843441706585926,0.0036377788549625733,0.03410942306528934,-0.004142416974502866
5.843082763671876,0.5721607155015263,-0.10974213188200402,1.0722165608326704,0.00718981333489377,0.047975206613061684,0.0049573493212750255
5.863082763671876,0.620329599953761,-0.12970635451198864,1.0553476285151016,0.004851983582010968,0.04314127842503649,-0.00035993662945571226
5.883082763671876,0.5909877777249423,-0.1488139039542275,1.1186504794020926,0.0024429088715097035,0.05300298531032427,0.005919329733560444
5.903082763671876,0.6122594840973463,-0.14139313425588337,1.0813578339966126,0.011007686428818176,0.055562965286939055,0.01019105314299443
5.923082763671876,0.6454237647262786,-0.178306786730688,1.0811240445695556,-0.000980950074383676,0.06440239866077907,0.008951258458420909
5.943082763671876,0.6402719938959909,-0.18352497497352757,1.1292230335046916,0.008471819469135847,0.06814001613070456,0.009476486033306608
5.963082763671876,0.6424817927580702,-0.1939757340456227,1.123359221086894,0.006538480596837716,0.0702497504969034,0.008265068904268905
5.983082763671876,0.6929086752792335,-0.20462986107180195,1.121273315561299,0.0026211962540192615,0.08793828802411657,0.010532811359353448
6.003082763671876,0.7084893941535818,-0.17279020162312306,1.1716869645099173,0.008457275541168085,0.089336220987227,0.007190714023007981
6.0230827636718764,0.7493872692532679,-0.19279806792745963,1.1837634438091074,0.0035223575345128184,0.0994272552127351,0.011672717412684835
6.043082763671876,0.7583601055047098,-0.14846048797943837,1.2056837298476923,0.008241565040432502,0.10861520731215542,0.00998734200922174
6.0630827636718765,0.7881017036406225,-0.15937397655497476,1.2309152937459036,0.0028951792957656467,0.11095751783796248,0.010053197540852269
6.083082763671876,0.7986895328416624,-0.1495246876427431,1.225259180115583,0.006163999983444251,0.12215191925276327,0.011429458160323413
6.1030827636718765,0.8467301001045522,-0.15666625146780908,1.2961407447011932,0.002489987562834555,0.12729708018888614,0.014119893594450296
6.123082763671876,0.793442081373557,-0.10840240152646093,1.2574999491726204,0.007984725631079215,0.1381239305266988,0.02032526862006124
6.143082763671877,0.7392108862537492,-0.14085494980210597,1.3525929791595315,0.00425446159683743,0.13664103172791334,0.02305687073285414
6.163082763671876,0.7852408028773926,-0.10490228702057965,1.37033111767976,0.007594032437840858,0.13522948444449504,0.020822694024687796
6.183082763671877,0.7396480263935195,-0.10913743876842734,1.3853813809058984,0.005367942713151234,0.14711375474684818,0.0296564450441292
6.203082763671876,0.6742289159638605,-0.14683070619712504,1.420921658732035,0.006378212489060166,0.14001318938484628,0.027356657166985994
6.223082763671877,0.6697873770121914,-0.13141348640904787,1.4167626387410959,0.005813373425838619,0.14708055456634933,0.029576684660198124
6.243082763671876,0.5594510353070093,-0.1668659316887516,1.4587178491316548,0.004271928111201024,0.1508070058877539,0.025393270054797728
6.263082763671876,0.5389823146943883,-0.1436223432231578,1.4495374138806092,0.0019348623513914043,0.1564921697681093,0.02492885301312678
6.283082763671876,0.5869182891694856,-0.14792705087787164,1.4692074167069185,0.0012644204402833422,0.15759835961609744,0.028002848955222433
6.303082763671876,0.5817442486333921,-0.13845496062890464,1.4442648989492761,0.001346027786103784,0.1619674976767323,0.020210240064178046
6.323082763671876,0.6580790767690297,-0.10959489992204056,1.396577232862637,-0.0014898062235352764,0.1700430113347193,0.024272018976952074
6.343082763671876,0.5948424467445569,-0.16269977714129225,1.4400444935193355,-0.003941019266991455,0.17520174651253345,0.01910642797821623
6.363082763671876,0.6691728898997215,-0.09882651358320521,1.3448020901026958,-0.002017799939737199,0.18265748341896768,0.018539648794750493
6.383082763671876,0.6606370188297565,-0.10248261937603056,1.3750266949764631,-0.006360362684429067,0.18748524752675827,0.02120338302574316
6.403082763671876,0.6776140726323772,-0.1292697720016742,1.3614473823606033,-0.00237518115936442,0.19767867126579272,0.01887530824807821
6.423082763671876,0.7555019283784286,-0.12101256469033278,1.3195950751605294,-0.002159967045087757,0.205255929266752,0.022634770000778567
6.443082763671876,0.7332179750681095,-0.09805396368946272,1.3283717043477505,-0.002860914888736224,0.20824739735320938,0.01773159470208906
6.463082763671876,0.7321553064069074,-0.08896402864833135,1.321458401134189,-0.0024623399897477976,0.21885455189343506,0.019883217176137526
6.483082763671876,0.8598943555084868,-0.0951590621971063,1.294746379353547,0.000518966893897575,0.23002758834267314,0.027517395245118956
6.503082763671876,0.8484046250439027,-0.12979380057655987,1.336516742052435,-0.0029266760917821826,0.22794766724619964,0.016752390824977547
6.5230827636718764,0.8520285634394231,-0.09140962822025729,1.2971098433327675,-0.0005531467997700023,0.22891331204716234,0.012998325356490398
6.543082763671876,0.9102687525397275,-0.1062503384324448,1.3184466049602144,-0.005281777409674571,0.24168131847797206,0.029405867022891465
6.5630827636718765,1.0160524425431674,-0.09414284310317698,1.2931372718828955,0.0025872309375486653,0.24293197631337318,0.02248019446172683
6.583082763671876,1.0283022925231151,-0.14230617091607412,1.355945283460602,-0.006182800861659148,0.24554950408836085,0.021649995491511212
6.6030827636718765,1.0467753985417305,-0.08186412968841494,1.2762999095758025,0.0013393369291402443,0.25228175123017565,0.02336995232008155
6.623082763671876,1.0068458926832973,-0.08166081730881637,1.3600535358622305,-0.010835095770930208,0.2601522937983064,0.026076650133167945
6.643082763671877,1.0585480007485906,-0.08092949821307652,1.338682428751358,0.000844975627502563,0.2502577265383617,0.027562398318589827
6.663082763671876,1.1207249241312878,-0.08541142063427565,1.2117901574376149,-0.0048047074636940355,0.2634467497707831,0.03570740610011252
6.683082763671877,1.0814967441443921,-0.11426677658980772,1.2593200930153865,-0.007186186754884044,0.2715868264377667,0.02780304303375444
6.703082763671876,1.1114055721922704,-0.06868672179539724,1.2529916397939407,0.0022347940997160727,0.25879968533450226,0.03902584156366438
6.723082763671877,1.0754026931946237,-0.11587536459017975,1.1708892985400985,-0.0021762151000537158,0.2698932221368808,0.044045346728029955
6.743082763671876,0.9793854326712511,-0.14300812369539773,1.2014897629297958,-0.002796978131683393,0.279793189329938,0.02586996355464039
6.763082763671877,0.9630177938086734,-0.06980373800798076,1.224185446128533,0.0019405007601881207,0.27597656664092174,0.03506116857865784
6.783082763671876,1.0202486951897292,-0.039955516639393916,1.153674889098046,0.004137251148782171,0.2932514662183575,0.05051183946821348
6.803082763671877,0.8690443982617935,-0.12837124149122756,1.2286352519926234,0.0003468264993808603,0.2902744429764295,0.026212534129033155
6.823082763671876,0.8777751004213672,-0.07098891975014981,1.2396569101083912,-0.001571398903525868,0.30416191077081955,0.028711528101922644
6.843082763671877,0.9606806426723808,-0.029827405457774122,1.2605885861942447,0.00240851931980266,0.3092498006355178,0.04878667303621264
6.863082763671876,1.012507043706054,-0.12110087395053208,1.361667995572403,-0.0027522204477463063,0.30515221329510833,0.04193478790776095
6.883082763671876,0.925890517927065,-0.12459969711829992,1.306575275483935,-0.0046043738212611365,0.31835401697370297,0.025893539357777332
6.903082763671876,1.0708121151600083,-0.07383313946867351,1.3509654924150285,-0.0159325946511863,0.32216411951026747,0.053452427702795034
6.923082763671876,1.1110490727887854,-0.15259040533723794,1.3906137608549944,-0.0060433053519160515,0.31113168659183416,0.058080035866826786
6.943082763671876,0.9559621458813532,-0.20702939937518705,1.333706376437583,-0.019369425591695997,0.3155910867014367,0.030649764707469516
6.963082763671876,0.8410715468786681,-0.11609068687794995,1.2946860729078589,-0.022107747937889333,0.330043490506709,0.046777645056413054
6.983082763671876,0.87651446886977,-0.09889073305387983,1.3437354217142425,-0.01365001293897131,0.3120287197159655,0.06461719876085581
7.003082763671876,0.7544580012829253,-0.1412296436749243,1.2047672959864146,-0.015513051666280262,0.31536102980604125,0.04009802080754482
7.0230827636718764,0.8111905040221479,-0.09154221907993541,1.1658537883809112,-0.02689656776371758,0.3300683610507589,0.04190030235358675
7.043082763671876,0.8271087445925122,0.008308462426209393,1.2931317489844059,-0.011847822090530933,0.31474252569439626,0.056937250839347864
7.0630827636718765,0.7467879942538685,-0.01305377662350704,1.162084718174533,-0.008887257825037709,0.30321078554877057,0.048869089458221535
7.083082763671876,0.8048887028176387,0.004291690608777822,1.1046640316229506,-0.019721792918696374,0.32591608347500295,0.04900112039996433
7.1030827636718765,0.6296346477520228,0.01082321396956797,1.3058849965743293,-0.008522125946215696,0.30560333085913566,0.043698916457849984
7.123082763671876,0.6185758290587001,0.03264468993709785,1.1664477129011004,-0.002575927673434395,0.2982458929642215,0.05832537443513067
7.143082763671877,0.554899645996154,-0.05712145776424031,1.134071551002585,-0.014309574627581225,0.3175516258375242,0.050831556486308126
7.163082763671876,0.406659102612704,-0.11985334607316846,1.259607857775474,-0.0017774237581429913,0.3024977709028903,0.038560542548324424
7.183082763671877,0.5263625631257604,-0.05543051825845922,1.1924601223511329,-0.0015549030010790857,0.29132678083352753,0.05501026575969889
7.203082763671876,0.40609183757530787,-0.18067919063531965,1.213712911275554,-0.005349559242013943,0.31838247017498145,0.05143111233474688
7.223082763671877,0.5056129848739276,-0.1949421654836245,1.2502595483081655,-0.0020262874147526635,0.29804363826367225,0.03544641311116415
7.243082763671876,0.527894789654134,-0.13588850048745527,1.245493136515109,-0.003912474734052055,0.2979572039467763,0.048775217875171445
7.263082763671877,0.2822255664466799,-0.17924054692120706,1.31498127710162,-0.005600452076714716,0.30004368452058416,0.041111366100982955
7.283082763671876,0.3467357225472468,-0.1207308497745698,1.335644386321811,-0.0030565578332390976,0.29095641815011064,0.04278144580158852
7.303082763671877,0.20905834292316738,-0.12422434155821156,1.3633352841147057,-0.006800644249757766,0.28501947374139536,0.04506517210273862
7.323082763671876,0.17173664203433844,-0.1489395002964925,1.2995895741697387,-0.006623204962780217,0.2788111358184087,0.038232383634213274
7.343082763671877,0.15598003669335128,-0.19129119217595045,1.2662769876277655,-0.013234119297721536,0.28747745559620497,0.038244652072010304
7.363082763671876,0.05429061183530018,-0.22005361032192228,1.2662676072035937,-0.010933855671877888,0.2720336706970517,0.027766044770940405
7.383082763671877,-0.033999775488407526,-0.18338623360869918,1.214567772576091,-0.016959150482387032,0.28039785859187016,0.01665158014864705
7.403082763671876,0.07435582515266455,-0.1326771935592747,1.1811281205447868,-0.016207131747111244,0.27194263718901673,0.020991237287450244
7.423082763671877,0.09956726285154505,-0.11086026629837044,1.0962244994109736,-0.0092691497731839,0.2570704655684991,0.02263330405201579
7.443082763671876,0.45814039069347584,-0.16928967637892672,0.9325388089838101,-0.01534456680940928,0.2696623522765979,0.03420559151672487
7.463082763671877,0.5863361044005005,-0.1628533825079964,0.9960886535478979,-0.011573454738259364,0.25645026539593846,0.01599898631348165
7.483082763671876,0.5034415724223299,-0.06655816858125042,0.908157492457818,-0.004512508095509794,0.23857458592936737,0.02209033642151365
7.503082763671877,0.4691181571346949,-0.04425454382720327,0.8884064116238455,-0.004504715356326393,0.24621104392646714,0.058173584471355
7.5230827636718764,0.4047650327095142,-0.0924953597152322,0.9423475395636386,0.003469381798540026,0.22119598821965367,0.03672318553314749
7.543082763671876,0.17808067953993864,-0.08916471332375998,0.8671244462461841,-0.00707035859775737,0.22369620921963007,0.031112909102669423
7.5630827636718765,0.10769461782430083,-0.0025820634525132668,1.020824937650788,-0.005814825139729122,0.22284715716592943,0.04765751461756088
7.583082763671876,0.08633833276920487,0.01833118780834033,0.996315162067615,0.008465601678057133,0.18553236889562624,0.04965240570135547
7.6030827636718765,-0.08126852821032589,-0.07232245081963856,0.8839989122994001,-0.006709052469129778,0.2015771087647872,0.038716320746651656
7.623082763671876,-0.1933493975695293,-0.03164294307905526,1.0282603753520843,-0.0029551195987800242,0.1869894405316586,0.03166048585322532
7.643082763671877,-0.2352560575468058,-0.009159566788911866,0.9847668605396006,0.0036307192909922543,0.16650664100855417,0.0415271355991842
7.663082763671876,-0.22623752340964087,-0.04358506768149502,0.935164519393774,-0.010882712735374599,0.17579057410189056,0.041908347773644695
7.683082763671877,-0.06387377003285234,-0.04482801782136477,0.9940943670876504,-0.005772523140000517,0.14822882958924935,0.033616669314470014
7.703082763671876,-0.22140450698051442,-0.027992142124134665,0.9697001012786244,-0.009678239443119158,0.14552847634648944,0.03496071679159427
7.723082763671877,-0.29350432923888364,0.0032413216851481658,0.8994696858819488,-0.010834668786536298,0.13392214437552116,0.04324967504732959
7.743082763671876,-0.37659484957341155,-0.04140793263322278,0.8679513210112587,-0.012982839196781787,0.14045517610877242,0.04540359060527107
7.763082763671877,-0.2685177062032527,-0.04657015737574218,0.855779042859304,-0.01657481022045414,0.13515721325542865,0.03425633616681239
7.783082763671876,-0.31335674830010524,0.010187132761559772,0.8732973724135915,-0.019184293306425376,0.11820871601181461,0.02009169689120365
7.803082763671877,-0.4356502639535842,0.03678277415790284,0.7708265443767264,-0.016499237996374254,0.12777876198914198,0.02924402304056542
7.823082763671876,-0.3074944665269097,-0.01114675691543586,0.6921343417280234,-0.020023921804319767,0.13139379678623297,0.028300519583589152
7.843082763671877,-0.18735610207818518,-0.045246423963443395,0.6274191011311954,-0.020143930180023407,0.12048155285780651,0.0019495270825893784
7.863082763671876,0.013557839057926284,0.034327058821107814,0.4491021245073451,-0.016893453499786812,0.13421672309250743,0.009097086693209001
7.883082763671877,0.08972143187087953,-0.08069013258573081,0.40904198125562735,-0.013513286926845086,0.13388321597360392,0.015666946439533553
7.903082763671876,0.23574618174909753,-0.13712970931498342,0.3955155336806855,-0.011420710777550816,0.12423618193718444,-0.0014183565048271661
7.923082763671877,0.1629949148283271,-0.170905151764615,0.30618987307102613,-0.012645202050807765,0.14008199592056275,-0.004747172490102752
7.943082763671876,0.2040531735074364,-0.21375423971658464,0.36161862068872,-0.011169683408603448,0.13836413178935322,0.011955752618464204
7.963082763671877,0.2782631077407373,-0.19780290685738913,0.37374752391955424,-0.002637149198165789,0.12987896873739838,-0.004223675791146656
7.983082763671876,0.22857215849430115,-0.20568393889132544,0.3967706456594036,-0.014744975392666447,0.13620192494479763,-0.010557603707993682
8.003082763671877,0.3091388540458757,-0.09029022414954078,0.3816675748740737,-0.0005660859040875777,0.13565761710742874,0.001918951833294773
8.023082763671876,0.2746299825803337,-0.08251027835899381,0.4637273722892273,-0.007007892333446382,0.1201361156691107,-0.0018049220552258905
8.043082763671876,0.3229809714088607,0.0012278379712768225,0.4201332374980897,-0.0016092694837739673,0.12741912681376014,-0.010473115032725253
8.063082763671877,0.4208676323152013,0.06512065479726752,0.37709712410635615,0.0014785561244002813,0.10992336424107418,0.011565432928373299
8.083082763671877,0.4242550911319545,-0.070817519264936,0.36541743733587145,0.0030614315522976302,0.11740970208589968,0.019041705372584993
8.103082763671877,0.5463499180607411,-0.12226233162609976,0.3946612645360499,-0.00428040999637473,0.10930874172723479,-0.005892830465602082
8.123082763671876,0.6072107177003371,0.014133645699347655,0.356487525740209,-0.00012049339487109882,0.10070712176456775,0.006634892210483756
8.143082763671877,0.5220951261196667,0.011144490916952389,0.4256389828869696,0.0005477262648622141,0.10463006994504921,0.03775744633609258
8.163082763671877,0.4030340081465819,-0.0671882564087454,0.35951262240607473,0.003990320600656845,0.08959313564129882,0.009101982073580981
8.183082763671877,0.23743538878339396,-0.08153910024389818,0.30537619272070776,-0.014619146070564587,0.09784929836669133,0.00038756224561294186
8.203082763671876,-0.0038253208473526348,-0.0266582681194289,0.23046027643845698,0.008295902202110291,0.09325102559063639,0.01099038503247085
8.223082763671876,-0.01143707627161666,-0.053979321293455174,0.19601810508597817,-0.006019418787725971,0.09284442575933503,0.014607335864081208
8.243082763671877,0.07361062992756023,-0.0679295055284688,0.14632816438894172,0.001902672393096222,0.10738149057727549,0.0020790974974894145
8.263082763671877,0.17718700626403336,-0.06510971729356993,0.2022126066387301,-0.0026210743997737906,0.09340804427643955,-0.001412990561378868
8.283082763671876,0.21094944168962754,0.05061068382908422,0.12913585976080874,0.0011818611049376855,0.11126690133128736,-0.0010782773157127193
8.303082763671876,0.23104284540472395,0.10844423339613345,0.24762121868778034,-0.0005975760374549984,0.09208952781213885,0.011740866442761703
8.323082763671877,0.22752140704102086,0.15548570969319359,0.16471897483835737,0.007566538530974889,0.10714870461196192,0.01848629226687864
8.343082763671877,0.35102690152152155,0.04411244582135225,0.2885688086741107,-0.007575812379409315,0.08007249163446596,0.02743599575956
8.363082763671876,0.30364606381778386,-0.03966457745515494,0.13944223414643558,0.008372420490419074,0.0988116833059412,0.026759202967987065
8.383082763671876,0.18815523615536536,-0.13648114877892775,0.2051825915984184,-0.01696479071523476,0.08443134567902938,0.016333631607739586
8.403082763671877,0.04497337960553291,-0.032815290777042046,0.16317295912380184,-0.0015517372645805477,0.09019039268344538,0.007770741770293339
8.423082763671877,-0.009381675878688022,0.01256287318772502,0.16322451992570186,-0.012754886900870517,0.08315557656760232,0.017595567161413896
8.443082763671876,-0.008433380800063582,0.004001602198118215,0.07689231512282031,-0.0038839056459366423,0.08785146407022797,0.002245151618245017
8.463082763671876,0.2304541430941651,0.08395648303022676,0.0632635125942432,-0.014018419231517995,0.09915506490923694,0.0010098311486628107
8.483082763671877,0.29821543369461895,0.10969794190134148,0.12223411552685605,-0.005077779099289008,0.09306784326088553,-0.0034367188542083656
8.503082763671877,0.42790011660293586,0.25347203439747523,0.1837589521179351,-0.011627311026167153,0.08404661380262358,0.00804512007301329
8.523082763671876,0.4833629885695959,0.19131844581037222,0.21375243665704413,-0.009507070006842913,0.1032602122895877,0.018751983028455543
8.543082763671876,0.4440129135486568,0.1298002192826381,0.23316013822584605,-0.016053640804958292,0.07031365598267524,0.005931236111680792
8.563082763671877,0.399479279721882,0.17751433617472387,0.07536387727101969,-0.015497555453919388,0.08361043772184304,0.01901936827843651
8.583082763671877,0.46340032080310495,0.10015077361833125,0.1303884029131599,-0.01772392314548057,0.09158366962721412,0.041986871722329414
8.603082763671877,0.30921687415957355,0.03510024590644757,0.12520048581496462,-0.01186241042365147,0.0655415337733682,0.01381399741716969
8.623082763671876,0.1564781308889636,0.020250247234702402,-0.030833376129944565,-0.02514640853460706,0.08834143202055937,0.020077498028643524
8.643082763671877,0.20997590214624995,-0.06894148179411379,0.04910354418621353,-0.013193144234104412,0.07590149638856794,0.044127652143331
8.663082763671877,0.12101978682311916,-0.1803526828006828,-0.1477552977128985,-0.005520239022129227,0.06401107710411406,0.013040379797042473
8.683082763671877,0.025881612377967576,-0.2481164433968541,-0.2884760798188065,-0.023748363516679052,0.09114324631792368,0.002556586167602656
8.703082763671876,-0.016874980714574234,-0.20938663179687825,-0.17728077290181626,-0.004867684526824781,0.0830068939498212,0.008171178719689923
8.723082763671878,0.018357245700412774,-0.18369779141090964,-0.27820924917154133,-0.0011867421757692112,0.07234464145110293,0.0056284265666581975
8.743082763671877,0.09843999403796849,-0.21658140871625128,-0.3607955480910906,-0.003631188987139859,0.08939439120048842,-0.0012382880444978673
8.763082763671877,0.021503385639961018,-0.17817584424532398,-0.20808065420150035,0.0031146654098300553,0.08250786932412382,-0.00592540846326678
8.783082763671876,-0.037495005926309166,-0.14540319376398647,-0.2530144865413186,0.008293432576700392,0.08990461933208407,-0.01111997624828211
8.803082763671878,-0.09035060182589559,-0.06425938204355092,-0.13397184430085474,-0.0023844407423942097,0.09612855005746902,-0.012709353971289104
8.823082763671877,0.007480594710396858,0.07595925530006935,-0.11662401787057847,0.014078759145567374,0.07133690693243908,-0.00848789663465912
8.843082763671877,-0.0027720909208791434,0.07410121863339947,-0.06655629962832658,-0.010877998931854923,0.10225404895575235,-0.011866131937124923
8.863082763671876,0.3106668129314045,0.13009085217373415,-0.08227983203652553,0.003892297064883257,0.058954788686431114,-0.0022420966912487174
8.883082763671876,0.38631000320863257,0.05080160981270447,-0.3925269050461039,0.0034232254977496763,0.07862415813671592,0.012543403285451246
8.903082763671877,0.2952201578784541,-0.14586995192487712,-0.40840441966262875,-0.017055601872500173,0.08883332703675147,-0.00593367988361907
8.923082763671877,0.2749825077076116,-0.1402819434454628,-0.48597260110837154,0.004268446053037904,0.07093583671145114,-0.015292798692961216
8.943082763671876,0.2337482162696156,-0.18527904825127361,-0.6100922965080353,-0.008722346620026635,0.08460030052986454,0.012242270602597955
8.963082763671876,0.25310253101778973,-0.2605399797373412,-0.5590532625518823,-0.00039635620613238704,0.0915399889961639,-0.005578117316356192
8.983082763671877,0.17781292834671697,-0.2699239762379052,-0.5488928705155519,0.0015001126140766082,0.07252886661224803,-0.026931499365800957
9.003082763671877,0.1661614403548349,-0.22514791947006135,-0.6889415923470518,0.00448682742074758,0.08893599109590827,-0.00582876379555179
9.023082763671876,0.12699418418535435,-0.2230299643819653,-0.6864490425877212,0.007012194610109623,0.08140418734890466,-0.018514445907851118
9.043082763671876,0.1486824236389278,-0.24742339233206406,-0.7596888915198333,0.005537630513937689,0.0964434452535002,-0.0411648831406471
9.063082763671877,0.09428869507954006,-0.1355332147491057,-0.6487161814633527,0.00498996220249141,0.09254062846472356,-0.027541048337152044
9.083082763671877,0.3041814000824682,-0.03316392423276876,-0.6202780827992169,0.019525026012558424,0.08709222894092651,-0.007206351921411783
9.103082763671877,0.42445783245268714,-0.07253188779567805,-0.5885861062443997,0.004469566783316715,0.0969519681775142,-0.02648787625817769
9.123082763671876,0.3296725232936508,-0.014852657724145457,-0.4681737327491219,0.0004412974548162518,0.10131419073369483,-0.04411042551723553
9.143082763671877,0.35702279277553,0.2350586881213681,-0.5049312688580998,0.012690384512027477,0.09109612943571478,-0.012093675330670024
9.163082763671877,0.40526443747409424,0.21570150661310222,-0.500835767195227,0.004521699760884133,0.09386763828109805,0.0021347196765289797
9.183082763671877,0.37413987606438265,0.20510727213824168,-0.48700143706716914,0.005428730036324196,0.09970420603485244,-0.037622007395682104
9.203082763671876,0.39091721774151983,0.3268464543926257,-0.4390709161908537,-0.005295924590744281,0.09922785696913776,-0.021810616081941937
9.223082763671878,0.5736463737659565,0.37597272587754615,-0.534514281227108,0.015122509979279102,0.08361002852638104,0.011842898823310171
9.243082763671877,0.630446082369788,0.25942651713167125,-0.624030690503007,-0.0010817650829870028,0.09292531112037442,-0.008859146301174542
9.263082763671877,0.6117926415862976,0.28970092773546485,-0.6104088496431703,-0.003735904303949325,0.12051453893814487,-0.02689356952324137
9.283082763671876,0.5038667469266789,0.39769445053622493,-0.4405672906806949,0.003095297449117821,0.0818913757116148,-0.010425347058091165
9.303082763671878,0.6323220005689866,0.39159609961808234,-0.6244171139589388,0.009087234127866618,0.1113882754141098,0.009059838525769196
9.323082763671877,0.820611915806561,0.2705466350831526,-0.6325099627426686,-0.004940044267937159,0.11413474482734079,-0.013493078653144386
9.343082763671877,0.9198201528102784,0.3199033142844637,-0.5948463467494329,0.0007779974154204941,0.1087472536671038,-0.013190075603306916
9.363082763671876,0.9127953620343227,0.4289587929382711,-0.5609312745211706,0.0018594205219640675,0.11764906060890337,0.013333005767885694
9.383082763671878,1.0794140717182448,0.39515104693999076,-0.5391351817481421,0.0031257622000736935,0.12316161119511104,0.017192166528804183
9.403082763671877,1.1116751368196076,0.3925498534709161,-0.5051812929241665,-0.005585175376447106,0.1268087787724349,-0.0052944012567183625
9.423082763671877,1.0591321029347687,0.5149180584651284,-0.5418284565452887,0.0011782472616369943,0.125174637991062,0.013148403936661479
9.443082763671876,1.0147568650479524,0.4971310472712407,-0.5415624482856223,0.001766199034661184,0.12263885623814845,0.0451183434269391
9.463082763671876,1.0017367123084933,0.3158903389869474,-0.58006866724492,0.004189619410854256,0.1112210204838725,0.03253255447356439
9.483082763671877,0.8610707619695442,0.14943050963587903,-0.766567809962631,0.0031051660366137744,0.12119088750165656,0.02492295181099237
9.503082763671877,0.6411563093944417,-0.013449975928860674,-0.9519793995582723,0.006710855189422367,0.12078773041093045,0.026484240279017916
9.523082763671876,0.3636317006815664,-0.13134758389587453,-0.995961562780127,0.005406850168643949,0.14763519524373175,0.02004732890667441
9.543082763671876,0.08449047358248055,-0.14721447467877874,-0.8838039482019943,0.006045597376671452,0.14994837034268163,-0.01186944882451517
9.563082763671877,0.04310579961587466,-0.07193110823072084,-0.7522122579741786,0.003916200830245574,0.15047661677914337,-0.012444407143207069
9.583082763671877,0.16890311942244307,0.01434036470661246,-0.6623276478644978,0.011942237172864419,0.14880317676939747,-0.002309276394475679
9.603082763671877,-0.06959240917716308,-0.10302710984124352,-0.5829157522066107,0.008583744026452267,0.14841887442328583,-0.01971303761489185
9.623082763671876,0.1213461547190731,-0.1284442495351797,-0.6003180400316444,-0.0003644369408378914,0.17103341230266167,-0.027097108437201603
9.643082763671877,0.23722362407592462,-0.06492108188409948,-0.6057411665163597,0.0037441049318569426,0.14581671476270788,-0.02872588527414115
9.663082763671877,0.17520666612608207,-0.1601134719517735,-0.6170704969610057,-0.0021157743303190407,0.1586078627217333,-0.013326863867478259
9.683082763671877,0.2606872344244498,-0.24684609652266767,-0.716527072518977,0.004458438229939408,0.1466171431868185,-0.033213048058041886
9.703082763671876,0.3139910598012574,-0.2756609039011797,-0.8595422285366502,-0.010102334387856609,0.16588445607062888,-0.041199074537225176
9.723082763671878,0.344249514646528,-0.18961001743113817,-0.906086579556022,0.0032505502990986057,0.1647774462945469,-0.025908031441875628
9.743082763671877,0.23211937695667667,-0.2790390962571271,-0.8681186261362553,0.0008294395152247133,0.16899062869310286,-0.033779902715957176
9.763082763671877,0.5667661288885822,-0.19756651794102623,-1.103393702886793,0.006252384045366427,0.17281941181992602,-0.031661326718463036
9.783082763671876,0.889074168793648,-0.22751990227819174,-1.0435912459161398,0.0020659729738427626,0.18164213830947307,-0.017792782101514488
9.803082763671878,1.0485466624898043,-0.29389448035847765,-1.0514863855240437,0.006818669282286467,0.18264511592928803,-0.04222586167064414
9.823082763671877,1.4041690546563406,-0.21621482510251744,-1.1726194976250992,0.006732806246132016,0.1803094188241551,-0.015778372816221898
9.843082763671877,1.4078902090589385,-0.22415315047317308,-1.3438333286339383,0.01732486778502401,0.19321812478264008,-0.005025594937118421
9.863082763671876,1.3971249815781261,-0.29186969189514966,-1.3089241531813463,0.004858267788225554,0.19525666640530176,-0.01788131356497628
9.883082763671878,1.537380688945463,-0.2516783092493254,-1.3093222362403394,0.019184048397786806,0.1963809026421299,-0.016563724307542892
9.903082763671877,1.358045717761663,-0.198123426311462,-1.2637681516341066,0.015257199069837357,0.20289869724043832,-0.01834615933079214
9.923082763671877,1.1676219633253406,-0.17803208477002075,-1.3221442104519132,0.019101952025774954,0.21471579966334334,-0.02187320262603967
9.943082763671876,1.1628959246432262,-0.14199317610106987,-1.3037694175415642,0.021486845677598416,0.22483858028101977,-0.010665358355619988
9.963082763671878,1.0657166997839895,-0.11971629997160789,-1.1873537482335474,0.022126284465961425,0.221180191832637,-0.03825598550793012
9.983082763671877,1.0850238050564258,0.09148208293353714,-1.190185276471835,0.02336830677960966,0.23910074849161475,-0.026856544503363194
10.003082763671877,1.4410779756478629,0.10509501576083191,-1.1592190632546704,0.03463663527142624,0.2587640547940804,0.01712140223631194
10.023082763671876,1.3434402494802398,0.09814174568901506,-1.0032418706795194,0.029099855432021274,0.22885481896150617,-0.01972475130338831
10.043082763671878,1.5783748966934927,0.19150456213928577,-0.9258207914872433,0.02581301230610249,0.2569973214306787,0.008702081160639759
10.063082763671877,1.4714998348291557,0.2743380568701464,-0.8453035909293364,0.037001815818949346,0.23360909006334335,0.0031987677398374543
10.083082763671877,1.4190487601425794,0.4171304513008582,-0.8310855586817931,0.023123176161903042,0.25129812578315025,0.019358822377614944
10.103082763671877,1.1725264980749721,0.5022187555122865,-0.7259264008331646,0.03392079757536366,0.25927959101235226,0.025023665939566966
10.123082763671876,1.2636134058334552,0.5959448805634574,-0.5900651682123178,0.02178042878394259,0.2401993968666863,0.03934057831303508
10.143082763671877,1.1169440314846377,0.6101205381338075,-0.544091990368714,0.025599474629860765,0.2601296694467306,0.034543423194047504
10.163082763671877,1.0875465942584626,0.6696755527546728,-0.48659453649682205,0.015820060864630798,0.2553937648919495,0.03596933133659903
10.183082763671877,1.1753432733890805,0.6951347766015631,-0.5128159382340235,0.01789009320387018,0.2592541989808191,0.05874275244059187
10.203082763671876,1.1376749849061154,0.5595630339616297,-0.45434454573853655,0.013299281162977884,0.24387870470836315,0.05377129993618036
10.223082763671878,1.0437034357437014,0.5429731150677042,-0.5674331624765254,0.0071820869696713535,0.23682995069805562,0.04293330599713073
10.243082763671877,0.8855554247237967,0.5063497431224725,-0.5952392146897951,0.005200664606791613,0.25443577772360415,0.06147975651228117
10.263082763671877,0.8250071840645431,0.3561058323553373,-0.6746949294160657,0.012833431473771998,0.24007091765137478,0.06276923095523079
10.283082763671876,0.7761984148680091,0.19678015846385083,-0.8348997769810393,0.007342767708559786,0.25365631613069634,0.0602217651726848
10.303082763671878,0.7127233985950301,0.1808335080450409,-0.8893146072465838,0.010769787948130332,0.23173894912739082,0.0510196088713967
10.323082763671877,0.5778261185679917,0.10272253615188799,-0.9102317593472182,0.022968745635493466,0.24088363523806294,0.07044936877293816
10.343082763671877,0.6333941464424062,0.0024500482280275493,-0.9868134792517709,0.023515823744173766,0.24086844577987854,0.060316062892722865
10.363082763671876,0.5046869986391268,-0.07427495163007994,-0.9146984527496335,0.023271282692460985,0.23453007140521834,0.0453132143885007
10.383082763671878,0.42328953163837113,0.03767020579292006,-0.9950670980518004,0.03677563821673511,0.2541491517883196,0.058594531612875415
10.403082763671877,0.33766324921515645,-0.06127159976350959,-0.741872796437214,0.02636925183509818,0.24441136978721248,0.06370075314316341
10.423082763671877,0.51784802869014,0.0766141723737936,-0.7334153552919487,0.04652969901516766,0.25095060083181486,0.05153239282030874
10.443082763671876,0.6506170432726579,0.2239000326330718,-0.46416814326015193,0.02489368968759357,0.23548877214369213,0.04961783231931157
10.463082763671878,0.687368468116719,0.430252677064725,-0.4050132418537027,0.04898798834481231,0.24745279352523802,0.0695629889887896
10.483082763671877,0.6817660500315588,0.35696242200616213,-0.41264774101837565,0.03840088405421452,0.2233185158095099,0.07233290683959179
10.503082763671877,0.614745671593354,0.31402235888424435,-0.6103793848495088,0.03782166709081892,0.24973938440121762,0.056415446864497114
10.523082763671876,0.5078117824411295,0.2322385468626872,-0.4975743571813173,0.03354615570694771,0.23529422117543425,0.06863570631309264
10.543082763671878,0.58200061559908,0.16524573512191273,-0.6650783788260346,0.04821443984039537,0.24730905818988197,0.074441558575494
10.563082763671877,0.4923519079552294,0.08231668171394786,-0.4610394296529914,0.022032013391964922,0.2519623182065591,0.0525933747359257
10.583082763671877,0.305522129747324,0.15427559210595768,-0.43964896202211473,0.044612396103413346,0.2456751647259713,0.04999204270706193
10.603082763671877,0.18326333772731457,0.15529477343057826,-0.49798205194054307,0.031303254367024524,0.2616193379653813,0.05987339466463881
10.623082763671878,0.2836698870865455,0.08653653779381999,-0.48529987524132095,0.03024543556582706,0.274344689433827,0.04166298943015747
10.643082763671877,0.1810777306729469,0.07054791251737741,-0.42696275742361717,0.030107751284458178,0.2552709968914548,0.025006118278777884
10.663082763671877,0.24653214455389455,0.058265453912933036,-0.4856545458153141,0.02461334404070126,0.2559852780827442,0.04449557769947122
10.683082763671877,0.19559569275279792,-0.04309730615471302,-0.33726847366097035,0.016526624074350623,0.277872953823259,0.031495985069512594
10.703082763671878,0.2561543300896559,-0.1405565454599152,-0.2898267256637349,0.014821296386924442,0.24841091357630524,0.00442257119173237
10.723082763671878,0.21866255132234577,-0.13102283670707715,-0.26414658845322636,-0.0027892828661000495,0.28978722157101006,0.019211216489267796
10.743082763671877,0.292890694827304,0.010766113078184146,-0.19414980450568056,0.005408908829243605,0.24643787715381732,0.01171637872077976
10.763082763671877,0.3596847907822317,0.015647332375115987,-0.2169169510320311,-0.01268417317918108,0.26836010127010096,0.024843882956347697
10.783082763671876,0.3464623139764292,0.005477287870517703,-0.14034853805939446,-0.018537182863447053,0.2613673932334721,0.007625437513509339
10.803082763671878,0.45180458853670524,-0.07313857647912361,-0.051739189055973786,-0.026395409478103583,0.23868951903304692,0.01974549357907376
10.823082763671877,0.5320538048486957,-0.010192811488656908,-0.267604414194749,-0.027920192445480385,0.25732529359015127,0.020687076163556296
10.843082763671877,0.5812161531454991,-0.05587426600073714,-0.20414500823522028,-0.04970467545144462,0.23933031760046675,0.006649916989103263
10.863082763671876,0.5771824295287841,0.09854135794931747,-0.43213209469175856,-0.03637913305385886,0.25315477908732953,-0.0006024921348248698
10.883082763671878,0.2802707612073211,0.09732756134282025,-0.3797416250360207,-0.05545744205740268,0.2419470432852557,-0.00044870901153499777
10.903082763671877,0.20345324151837746,0.15894996873414952,-0.47459518803345235,-0.04255980512956578,0.24976720437819339,-0.005465859494883667
10.923082763671877,0.3703935239837196,0.13178961867382394,-0.5003945504679704,-0.051479959778198935,0.23761989119080404,-0.008681311760971429
10.943082763671876,0.7670437258493646,0.03428159296748716,-0.6630997044812164,-0.044977220880914444,0.25289584736022414,0.008241795648383026
10.963082763671878,0.9235272402486678,-0.06901902073487741,-0.776846925238369,-0.04540355568910818,0.22688619225399193,0.0027233179292303613
10.983082763671877,1.153466303765655,-0.19404573899905767,-0.9331459462109755,-0.05072686660344786,0.24587994896804605,0.007155224078212216
11.003082763671877,1.0585731106430565,-0.22196198542673182,-0.9258093656799496,-0.040890906203468906,0.24643605425031573,0.012410568913272732
11.023082763671876,1.0545649122065004,-0.21664070326043436,-0.9857838842618666,-0.032763558234775496,0.23651224173139146,0.02531188072132112
11.043082763671878,0.7356606240950399,-0.11942712997462007,-1.0695914093851202,-0.03768204171465328,0.26175118182385226,0.0007624117740455265
11.063082763671877,0.8723844344117773,-0.01635680258684383,-0.9580640408101491,-0.027162238556653673,0.23593472637554247,0.030126001889944607
11.083082763671877,0.6202755502261252,-0.012262576346558293,-1.0221882268886753,-0.00706396690667678,0.276024212684306,0.020951326966146072
11.103082763671877,0.7617660093031902,-0.0020172062877808843,-0.8131413770875047,-0.03684973502999002,0.26703650706971876,0.006984987239895781
11.123082763671878,0.7281192284304101,0.1352189334876966,-0.7921397154403792,0.0016617419454199075,0.25613532578162873,0.004256493113552754
11.143082763671877,0.8200641362675578,0.2986219253359523,-0.7407950685200414,-0.02039384158986591,0.27041089083019154,0.03572661713753246
11.163082763671877,0.8454195785657551,0.21493237985871907,-0.5593714713673178,7.760482237889693e-05,0.2711896481307986,0.02759519290520071
11.183082763671877,0.8121036541906647,0.3293400880417115,-0.46109549602128125,-0.010591237978983106,0.23968214264186066,0.014355873103179961
11.203082763671878,0.9015101537091744,0.40510891760837825,-0.5095843079452429,-0.006583799249426379,0.2783199734357811,0.04510488291202148
11.223082763671878,0.9017503677604576,0.38837924831013637,-0.3469318698859144,-0.01062830652358198,0.2440410711177083,0.03844545530441024
11.243082763671877,0.7250950212357148,0.3033909098154243,-0.3369154255904726,-0.011797860240363545,0.24402962457360194,0.03338841548755915
11.263082763671877,0.8027762031429614,0.35264101940157844,-0.4229339845627628,-0.01955824242908242,0.25151194898424445,0.0510924967578727
11.283082763671878,0.4981714311458271,0.2381041688465647,-0.29147559401491074,-0.025738959923249632,0.23950127545329758,0.036844693959051045
11.303082763671878,0.4193317543240002,0.23719745734737246,-0.2771062765505713,-0.03072462544752653,0.2574080979833992,0.04009485222626698
11.323082763671877,0.6427965424594897,0.23475459147326544,-0.22890145235625117,-0.031037238681606818,0.23680926751416273,0.055022777177689414
11.343082763671877,0.5683692677057105,0.3074062262914623,-0.33599463760473286,-0.030414138163618955,0.24936310553397473,0.03377970993518571
11.363082763671876,0.5995980912809178,0.43484246411625926,-0.2163805401751752,-0.04853159779792128,0.25326137580543984,0.04609691477547961
11.383082763671878,0.7350578699517085,0.5271612087881551,-0.28236482382916045,-0.022966497054454436,0.24129880858470348,0.06758044049786212
11.403082763671877,0.6358208481971795,0.44360274103121344,-0.2101597293296897,-0.051011120901878565,0.24560489340050323,0.05333804913545768
11.423082763671877,0.5941830721547431,0.517128329150431,-0.2493123771942703,-0.035465035491595645,0.24984097253439894,0.04364317674280229
11.443082763671876,0.5987780020654135,0.6287670904856882,-0.283408579851705,-0.036750459084479166,0.24322297218759611,0.07751211348470591
11.463082763671878,0.6262975324894209,0.4751224547235755,-0.35046444280250305,-0.030095984209663352,0.23941019274972888,0.07520804306393382
11.483082763671877,0.5302997487725707,0.40371449517910046,-0.361619268890918,-0.03742504103596894,0.23785509499509558,0.03902819500877505
11.503082763671877,0.5987453933518326,0.44854595963937216,-0.46831905862583045,-0.025834431358337625,0.24563321610632166,0.06630676014983311
11.523082763671876,0.5156242690497687,0.3136425061493184,-0.45551105351479204,-0.01639404469342153,0.2445721851145951,0.07472244089532239
11.543082763671878,0.54235140238281,0.18024927455589182,-0.3991854480666664,-0.028247925943036035,0.24459682159327184,0.040498511482925895
11.563082763671877,0.6387977103770125,0.17566915208957365,-0.4028520771552072,-0.014972642398515265,0.23445573578675488,0.042750551186403425
11.583082763671877,0.8738853000721929,0.18203925654853556,-0.4281731845035179,-0.015062831214879502,0.2465770927278813,0.07745992442180949
11.603082763671877,0.838414482892226,0.057045974081402745,-0.2239241772125747,-0.018270488354353624,0.25632532602999997,0.05679964022531586
11.623082763671878,0.884629847281948,0.0836169818696135,-0.11438695114327797,-0.024375335653905605,0.23335496456431495,0.04623097076675165
11.643082763671877,0.9332390507918952,0.1534143381916285,-0.06475500560658978,-0.024508500187224808,0.228394055488187,0.0820788188596623
11.663082763671877,0.9518992387446853,0.0862378794254355,-0.05675840689436355,-0.026130047325724107,0.2360374808638032,0.08745740159166894
11.683082763671877,0.8355193843246246,0.018346513628583187,-0.042132285421542875,-0.040646989248428404,0.23143881099237307,0.07149878794773155
11.703082763671878,0.9084040540614339,0.07295479144099498,-0.0633890976791202,-0.03889716779850285,0.23388461952873063,0.09709030014423091
11.723082763671878,0.8497779670461924,-0.00011439496426392992,-0.08717358516677072,-0.04188950014027161,0.21991065986859465,0.0974754540390168
11.743082763671877,0.6399752845057269,-0.09443301705193072,-0.17302359597263633,-0.050716715051428336,0.23327462629615353,0.08522990084359072
11.763082763671877,0.7005764637998315,-0.04881829616835793,-0.27840272808246475,-0.05145083621444593,0.23832365595184296,0.09706757223113727
11.783082763671878,0.5437655903928713,-0.11022438011305284,-0.2796141539888291,-0.05399733813662015,0.22670518757946678,0.0992311438929514
11.803082763671878,0.4617482969791736,-0.1233347418211873,-0.3294484479226286,-0.05913423047036185,0.24190415493529058,0.08640992898743825
11.823082763671877,0.32066791625677554,-0.13266264740782097,-0.22286407063592545,-0.061766094839108436,0.23588879776766744,0.08275694676769815
11.843082763671877,0.35383676503970857,-0.02761226663536657,-0.338132736741761,-0.04980061815369238,0.22719860900802188,0.09322583124600672
11.863082763671878,0.225791172132086,-0.06080031562865119,-0.3253834944571942,-0.06429375583319277,0.24238388532914915,0.08381782774078543
11.883082763671878,0.3348990392777444,0.01326972725053924,-0.3740568842669703,-0.04732590491672547,0.23255302814286674,0.07627601721470573
11.903082763671877,0.24688505133904182,0.04048355690319103,-0.394873169655933,-0.0511126605582703,0.22969731951662806,0.08016670484227652
11.923082763671877,0.1843106597187461,0.09807593609062218,-0.4349383099499802,-0.042235607700765974,0.23710754199183898,0.07170611657054568
11.943082763671878,0.25329840951848426,0.10464412044563162,-0.4455446910969488,-0.045410978599793025,0.2422915158417377,0.0649730080838802
11.963082763671878,0.22916404518169486,0.0833010567529153,-0.343019466846773,-0.0395852033088741,0.2317448202355633,0.06411634223240487
11.983082763671877,0.055010364580611384,0.12331851499767549,-0.37229596716137847,-0.0314204756565632,0.24215261187069353,0.047501161096758705
12.003082763671877,-0.01089066111428041,0.16326081792795763,-0.3213744465957264,-0.03777656310699986,0.23800430799217875,0.04028640273238707
12.023082763671876,0.014974299275855429,0.23864417350212025,-0.3051200083921592,-0.022798043863935108,0.2444256487434641,0.043590480811173185
12.043082763671878,0.062095855935039176,0.19488206759147142,-0.2729991352620491,-0.025103349244463766,0.24464974132097383,0.03365291532976614
12.063082763671877,0.16374970302460443,0.22730479584935473,-0.29065705416667764,-0.0215375443165006,0.25446967009543825,0.02002862235570012
12.083082763671877,0.13121058609540848,0.29575369518716144,-0.1819454618994358,-0.021241363382349183,0.24477187416352977,0.019316351668395786
12.103082763671877,0.14211595801535312,0.31669036944487305,-0.23280049304292494,-0.012667131273698905,0.2606931533530475,0.024975948480396765
12.123082763671878,0.08595482455566801,0.2709661593634827,-0.12281683055983822,-0.018365720524297663,0.2593876862723691,0.009567983580726176
12.143082763671877,-0.04736857909588911,0.23410301960366012,-0.04149210084095182,-0.0119531734537453,0.25565116578048,-0.0010651881604043434
12.163082763671877,0.19458875500016656,0.2774725412343739,-0.11260866333093199,-0.014792825806978951,0.27041937506984165,0.023296742730520747
12.183082763671877,0.34304142189513304,0.09586873622234719,-0.01121096123815252,-0.019101878471453403,0.26069746720791886,0.003646469512022987
12.203082763671878,0.4666741337962998,0.058718462695381175,-0.0407057229687138,-0.027933804097059502,0.2575934303815139,-0.008387436167335595
12.223082763671878,0.674286075862175,0.04405711633313622,-0.05273369753295851,-0.02757535637194982,0.26489028975977685,0.01663275099555746
12.243082763671877,0.7591702490857039,-0.07246298807502655,-0.0014917147429021104,-0.03512446654896666,0.2498971094527631,0.009924792738058784
12.263082763671877,0.8173273703246043,-0.06862969666797909,-0.09892986418645668,-0.03946175179009932,0.25154339062753994,-0.003690956128076796
12.283082763671878,0.8868244466018324,-0.016478463152191015,-0.13538133005549452,-0.04597701807218108,0.24973167653156,0.00910609992644173
12.303082763671878,0.919398428967019,-0.003975013130067189,-0.1025590585633986,-0.04545868921045203,0.2612797909986967,0.021809738591234702
12.323082763671877,1.147761372499338,-0.05770082831509767,-0.09238026187268161,-0.04956860415969858,0.24215932282598235,0.021262706703948663
12.343082763671877,1.1341931264224112,-0.032242798603204496,-0.1963773500439019,-0.0535660693247249,0.24831763223052947,0.009550586195628532
12.363082763671878,1.077949013837231,0.09558897800409101,-0.23494287377052334,-0.05735109073075153,0.2542096759040862,0.017690194177031025
12.383082763671878,1.2182961733281934,0.09362781648001064,-0.28232591673783825,-0.04749939273449263,0.2489334277456734,0.04574650946990721
12.403082763671877,1.023283642568311,0.0028772844461359814,-0.32926755046658346,-0.05382678629550054,0.2549635020775643,0.01789610279830988
12.423082763671877,1.0877645721946811,-0.009857511332326162,-0.2412579909754556,-0.06166267908442931,0.26633899632929553,0.026649223715190636
12.443082763671878,1.047827246823142,0.09963435399439548,-0.2830839105415253,-0.03877521598829848,0.2577589602995271,0.03599756118655492
12.463082763671878,1.0117088717174305,0.021390654547663788,-0.1837874411373411,-0.05634059640108005,0.2641669463061264,0.04473590016386919
12.483082763671877,1.0890384517593503,0.10847398680708051,-0.2594663240446629,-0.03808109523659853,0.2762433444829346,0.026888904018461755
12.503082763671877,1.1388304114501169,0.12229176126381593,-0.10516510067460465,-0.05403481387369115,0.26868024069959257,0.05023659725936118
12.523082763671878,1.0264260581613507,0.16560407974721986,-0.15711907815803816,-0.028034376921639296,0.26778024512970433,0.04383133512950131
12.543082763671878,1.000752548335091,0.176262113413166,-0.06402417417120407,-0.05301892494559462,0.27489496788405493,0.04693101170693065
12.563082763671877,0.8299913012590852,0.14946777603045694,-0.05796079369635718,-0.027839808098305913,0.2880917157811785,0.0501919316755661
12.583082763671877,0.7916710104713999,0.1829151065435216,-0.019938366756255186,-0.04015308770115908,0.26044160605317423,0.050981025506368474
12.603082763671878,0.569567435932941,0.12399942330588272,-0.05841540673982478,-0.031375229802633846,0.29019228632270533,0.042268842523600525
12.623082763671878,0.6312271938952473,0.1780886350434795,0.040254931697057746,-0.0383495143429903,0.2808947929318172,0.04186953394601545
12.643082763671877,0.569445682576926,0.16373110506191738,0.08123306774145675,-0.028658525170844534,0.29391297825443985,0.041856834999032276
12.663082763671877,0.6828264857626724,0.2068632375541,0.09445195680789419,-0.03642609503737148,0.2881922639050273,0.029179864137685127
12.683082763671877,0.8141478687976611,0.19495224383232165,0.14247751987211946,-0.03425559542306465,0.2982812613966142,0.04194522782982815
12.703082763671878,1.0750765483729867,0.19932503677609836,0.10823401590771231,-0.034247600592057385,0.2929003472900571,0.043881745696531006
12.723082763671878,1.0614139902759128,0.10820030434701368,0.2106902833414134,-0.04541469192987427,0.298836927581097,0.03435627706801725
12.743082763671877,1.0611571009288856,0.18590004939088411,0.11181662454628793,-0.03551058625255142,0.2972349010097748,0.03512316521309012
12.763082763671877,1.0620131122247705,0.14318836294952203,0.12704918774434587,-0.04776137144383493,0.2975506504956011,0.057425466611158736
12.783082763671878,1.027106542424099,0.08163118800715967,0.0006815191773463455,-0.03493245364229956,0.31353720169622107,0.04965763340099672
12.803082763671878,1.1433112351794932,0.03246031273660986,0.04486740226987708,-0.051617722374579116,0.2920637703616132,0.03825731610061911
12.823082763671877,1.188634186544871,0.12178400947996822,-0.08132462508475304,-0.03638080869712618,0.31746103017129773,0.04848756420285721
12.843082763671877,1.3317539158361575,0.13836471728996577,-0.005840219517599758,-0.0460037117075796,0.30577913705355403,0.06050822352865237
12.863082763671878,1.3442208340728687,0.1484210374585843,-0.1040574156944122,-0.034068632697553725,0.32363552777834953,0.0501110956369328
12.883082763671878,1.247304243437192,0.18063262121713058,0.007271855962634518,-0.047347009284120105,0.30999960996410764,0.0477512382389348
12.903082763671877,1.2398790808407203,0.2413554198071025,-0.1033119397403172,-0.025715018097811942,0.3197189318077004,0.06628802024993298
12.923082763671877,1.185011159821423,0.22783510434177393,-0.051855699655125896,-0.038737946542264715,0.3218195556349178,0.06621869620312572
12.943082763671878,1.0078535321529642,0.16746039967264012,0.03426710582658177,-0.031071979507407397,0.330550770188411,0.053238472476877935
12.963082763671878,1.0127369688007655,0.23345136548291495,0.0837975455906772,-0.03060784339510828,0.31443929880069854,0.06353259452477249
12.983082763671877,1.0729774586174323,0.22817992368711454,0.07894877605655025,-0.025153835684933935,0.3273602849037695,0.08334159501271478
13.003082763671877,1.0540281312275432,0.09926862920410806,0.1768624280955014,-0.03345351948640552,0.3257160784534415,0.061931397675936646
13.023082763671878,1.1544140879606686,0.16958109019791043,0.18449228834518205,-0.031866158406050706,0.3149476847570509,0.06697296054662145
13.043082763671878,1.0629219433223336,0.17235083825038575,0.2100013051281417,-0.03011502023580219,0.32298149885155736,0.08873249068809175
13.063082763671877,1.1189017003935622,0.10260012794910592,0.22600714458636914,-0.03497933643318402,0.3208705970584487,0.08650576155790547
13.083082763671877,0.9513159071310148,0.08269280291994385,0.2802218589871675,-0.04038903931217904,0.322862967187592,0.06660166225110253
13.103082763671878,0.9164030725045388,0.24209311764635452,0.33325305632213204,-0.036826624410232364,0.30172296903334617,0.08007057542812335
13.123082763671878,0.8565834856999462,0.29173452826724383,0.18918305747704997,-0.031071133865588647,0.3240200748908187,0.10719931226776587
13.143082763671877,0.8335671158100912,0.11932858583609418,0.24422775829511403,-0.04054239443345929,0.3072915754129396,0.08593038702353947
13.163082763671877,0.8338688464398993,0.10379514413825483,0.07695075464943203,-0.03144228458363444,0.3091193241625387,0.08136973416332768
13.183082763671878,0.7053710000298233,0.04828451555279467,0.054273282384187174,-0.03508577601750441,0.3104974156808693,0.09777428049628165
13.203082763671878,0.7283954078316373,-0.04906005404331088,-0.005782285571193154,-0.024833081711103714,0.3131189150367351,0.09519432511856109
13.223082763671878,0.8046951149942706,-0.07211410259512821,0.020955576071641644,-0.032938952651443094,0.31412536430719507,0.0754780804843214
13.243082763671877,0.8279659884347401,-0.004186290671620712,0.059996558091534063,-0.025930633463685286,0.31821334354594605,0.08490814045616833
13.263082763671878,0.8390597506906436,0.047775324999631275,0.12289100889583525,-0.018730394158587297,0.3013665427227175,0.09902243043825172
13.283082763671878,0.7833899250998979,-0.030981861668560717,0.08624990722298344,-0.023540386689774654,0.31523513596464053,0.08952823061772565
13.303082763671878,0.7611408402425145,-0.01487413553540209,0.12253942128472113,-0.025356613447480303,0.30941635681020246,0.07876393582959375
13.323082763671877,0.7230695084517846,0.08166307580519974,0.14248485940932853,-0.02079500789771997,0.31762719023869035,0.09573253077042103
13.343082763671877,0.7301763745824426,0.04742505289519638,0.2358068827492967,-0.024093236243277475,0.3189930819482758,0.09444241030333499
13.363082763671878,0.6571601094218633,0.05178459712771912,0.2701969887021566,-0.021523989867337327,0.2929655137293394,0.07683854290738686
13.383082763671878,0.5208780194793553,0.12220311796591996,0.15741702991725523,-0.01971322176591962,0.30579146203080515,0.09146340464332522
13.403082763671877,0.4738727788014805,0.05525432990383623,0.18941237634252145,-0.01820117735886404,0.30413619695499217,0.09877015341365632
13.423082763671877,0.5088264870517334,-0.011950120325346997,0.09903708355649579,-0.010983374620303597,0.2934627786449639,0.08623470578184722
13.443082763671878,0.5917949208035778,-0.04573600324706045,0.04189322294596996,-0.0145764732575742,0.298873180076927,0.08612589016619077
13.463082763671878,0.6849744191515204,-0.01582858114346303,0.09302305243573158,-0.007382508341326068,0.2890458174411018,0.08586651952256781
13.483082763671877,0.6676590544958698,0.02219291600606203,0.13357492351582723,-0.007658075604565533,0.3017486697644878,0.08652313255859856
13.503082763671877,0.6082767582481694,0.10346523145938592,0.28983630011871414,-0.012090092273204102,0.2822661282956029,0.07063295719360037
13.523082763671878,0.5543894347534778,0.24876707937772577,0.41210285933584584,-0.010144558244653728,0.29498931020770053,0.07657059518855625
13.543082763671878,0.46763676224251627,0.33767963580298643,0.5213571938875732,-0.010012921626546939,0.2861059866402819,0.08225247619215453
13.563082763671877,0.43503811783831514,0.3178338543247463,0.5714987584196866,-0.018680916362755425,0.2806218702740265,0.07336456228723261
13.583082763671877,0.48992901270983197,0.3630188596896453,0.5222891790039846,-0.017707160171058296,0.28455627235532277,0.06963684304737189
13.603082763671878,0.5331425566522708,0.2592554459423121,0.518993645629605,-0.021541334810133043,0.2708761571395997,0.07516100744219648
13.623082763671878,0.5533356739120565,0.1857446741161239,0.3684356184366456,-0.019241921516382456,0.2838444637637593,0.07637121691861509
13.643082763671877,0.5130605454695255,0.1205369942620236,0.42722711984402295,-0.03078301861182108,0.28043237908377133,0.061436771885310965
13.663082763671877,0.40552409671494316,0.12483408663368502,0.4232723485235635,-0.02316548703363754,0.27546913813691026,0.062068955138903474
13.683082763671878,0.450527485203026,0.13097099688242383,0.3704180259911446,-0.026609895301598477,0.26428143821590633,0.08131389013431525
13.703082763671878,0.2790537355702716,0.027371562602926728,0.32582595166297146,-0.02377490407068933,0.2785384835582664,0.06959669001509285
13.723082763671878,0.4050350459127646,0.02503434998262882,0.33174971782270263,-0.03158023112263181,0.26435139583262224,0.06208688496021852
13.743082763671877,0.32159064567082307,-0.009526779210645849,0.3575358478885674,-0.024420208941493996,0.2631697925234798,0.07529289395438139
13.763082763671878,0.1453200518394035,-0.03458324629635528,0.351836844588819,-0.022740178888539606,0.24480756240012458,0.06488468708048373
13.783082763671878,0.1470403959244699,-0.09918232595411099,0.27136272157224395,-0.031081043715366106,0.26020370452554215,0.06196398434366006
13.803082763671878,0.25636907538842013,-0.08688769630011889,0.2806894081829333,-0.027640992911105534,0.2606791056398631,0.06295098994283539
13.823082763671877,0.32172459835398726,-0.14786822443017825,0.41737952107226356,-0.03377273853963779,0.24777437389067283,0.05646036487302433
13.843082763671879,0.4578152304693974,-0.09577757582808366,0.29324269259244534,-0.027884022920022105,0.24590440455345774,0.053785862658407735
13.863082763671878,0.5002147017689695,-0.12539513547205683,0.30126430318283254,-0.037704551970539714,0.2332462738299248,0.06338747360531027
13.883082763671878,0.48238017258921784,-0.15332854931708434,0.20666579134419766,-0.029711007006670554,0.2414541631848844,0.06030222919376081
13.903082763671877,0.5412323605709709,-0.17175474759690004,0.23545768233170236,-0.046471798551786334,0.2334716054654058,0.05405949680717552
13.923082763671879,0.5047972041303146,-0.08363505733035898,0.16485784494253158,-0.033940321011038305,0.23420580617667117,0.05025200597742221
13.943082763671878,0.48396987269833963,0.029102189855564724,0.1351259627369851,-0.04087466126513093,0.2321939101989199,0.05787971357366613
13.963082763671878,0.5367179904091114,0.09728745617568045,0.11533805539442492,-0.03347033178499287,0.22186666597200272,0.06068474502778072
13.983082763671877,0.5707633028556017,0.21981060126782362,0.1837236391275243,-0.03669383233660699,0.21779259258641248,0.05766467779414742
14.003082763671877,0.4445654089268191,0.21542509520938133,0.19985420346203547,-0.028817992587440326,0.21444415806962802,0.0669437250433462
14.023082763671878,0.31071426305806676,0.2497772748077748,0.03398721947064637,-0.024893217341140243,0.19498242020615905,0.06571084370030322
14.043082763671878,0.1517041587463424,0.108309639311605,0.03989639559665876,-0.03735451219497376,0.21993770966519072,0.06611907966853342
14.063082763671877,0.14515628843090939,0.13209606431857723,0.04530769496821947,-0.021319494759715348,0.1950650043619011,0.05101230920688093
14.083082763671877,0.12979097658632635,0.1374314757287295,0.05911457032714918,-0.03274918740756284,0.18850585347669357,0.05496046169400172
14.103082763671878,0.21810350353825844,0.20502355520524776,-0.0164428318090489,-0.020365586848144202,0.2102061533931236,0.05668210975202815
14.123082763671878,0.2917771006617421,0.1454816220407188,0.16179660877393184,-0.030448994817204915,0.1755917838017197,0.05990622143505683
14.143082763671877,0.25205147197705163,0.20513516408218477,0.0703186132741221,-0.01505804317790856,0.1809109189732513,0.05691450742570342
14.163082763671877,0.12443166841804483,0.24170361388875725,0.1618280580875865,-0.03243637279763655,0.17147235256031776,0.06592700301208443
14.183082763671878,0.038151246957335384,0.27207043785959223,0.12052075913197546,-0.009509157281753897,0.17527314091585508,0.0686733468081377
14.203082763671878,0.06349183083707846,0.25801968201245556,0.25479152004781047,-0.033347533810709894,0.15607296474631546,0.06768178804996693
14.223082763671878,0.06223246297950578,0.3180200613018436,0.18917973463480106,-0.0162849892478927,0.16212529936150277,0.06578433057076799
14.243082763671877,-0.0018259940294994223,0.2849491518317285,0.16795787115336233,-0.025891305901812454,0.14043120997948855,0.0796470778678991
14.263082763671878,-0.002706459666364928,0.17032137838091524,0.03300206498317375,-0.017321418893599238,0.14631664430100733,0.0780785991441106
14.283082763671878,0.05162742910099837,0.04677280278784289,0.05410066106471182,-0.031143870295444995,0.13598529814866034,0.0671572895358567
14.303082763671878,-0.04410918148878758,-0.011583039924722526,0.006202921486712019,-0.02364704269354714,0.1300251389932912,0.06467777181635871
14.323082763671877,-0.04453792649448358,-0.02346604015372008,-0.027791252146830755,-0.03135551810169806,0.13569553671096843,0.07113242482454328
14.343082763671879,-0.03611666761862277,-0.0470985236575574,-0.030405526788435912,-0.028319967328827467,0.12531673196780974,0.06889291811415395
14.363082763671878,-0.3146487856269569,-0.017387602180055063,0.04597795966502155,-0.0338115807300824,0.12424736439859212,0.04420815261922673
14.383082763671878,-0.24326380775958534,0.17253056748940762,0.13626459333498095,-0.03905559199627644,0.1115867938055643,0.061191378291024175
14.403082763671877,-0.14413297306582512,0.342770320625164,0.15994098968207723,-0.02771171630696286,0.1161053516378972,0.07603318734734033
14.423082763671879,-0.35222531778920874,0.1944497601660107,0.16459262927803486,-0.029741228010791102,0.0659680521782287,0.07002088538786397
14.443082763671878,-0.61620296498335,0.14798173824449135,-0.3726784714968049,-0.014953800948478209,0.062263937746887946,0.05452596821286516
14.463082763671878,-1.0562192099241348,-0.233564088746463,-0.5424828600719022,-0.03785389352582959,0.08397535233359538,0.06650231619188428
14.483082763671877,-1.054489803201521,-0.42412989035212617,-0.4937401783228991,-0.014350390758005111,0.09542390047777742,0.038226045397670654
14.503082763671879,-1.1482360051021967,-0.3170330493829653,-0.3500813209016378,-0.026943488323942975,0.05244160168450329,-0.005689612633726528
14.523082763671878,-1.1364640555695447,-0.158975312208934,-0.4695293319373336,-0.014550198078667913,0.08401292107161845,0.004597829161066569
14.543082763671878,-0.711774394137992,0.014857207162688062,-0.18028137790724547,-0.027078317600767832,0.09150284213082337,0.01930210319497747
14.563082763671877,-0.5596671840722137,0.11719997040956304,0.03221642981413789,-0.011048023350127417,0.053682916157984414,-0.014766839331721227
14.583082763671877,-0.48690642342528095,0.27215295635628045,0.12455493837189217,-0.03145769842052476,0.050718527840540054,0.0015567885562408825
14.603082763671878,-0.1368927323872433,0.39111727627753806,-0.21022071986461469,0.003694447116420097,0.02230137940474098,0.05392045445659597
14.623082763671878,0.17333943314430048,0.03258058485721539,-0.6077634295701844,-0.011156404598851245,0.03536081200122565,0.08354895341257607
14.643082763671877,-0.02224266046581947,-0.22428715648436642,-0.3995050530782995,-0.02396141237743834,0.053573159178468645,0.020757692035209784
14.663082763671877,-0.01381680338860286,0.09829347742412925,-0.45531092521515015,-0.0032661137766804567,-0.009297334310137332,0.007539265685011032
14.683082763671878,-0.20037325341621295,0.15523616604296742,-0.8069883912996848,-0.003605761105476603,0.04459794760715411,0.09188366428788414
14.703082763671878,-0.0832744905193082,-0.23378186170540688,-0.4297285061235856,-0.011136818953015014,0.049338317837098834,0.06283791872424299
14.723082763671878,-0.060769807470027686,-0.2329097874018258,-0.37592094005768684,-0.007315820739222564,0.026653784844650506,-0.02682138377973506
14.743082763671877,-0.36736627854339415,0.0434398438904217,-0.351995249414083,-0.028142302752682317,0.044896155155943175,0.011526118213172757
14.763082763671878,-0.1348081737900534,0.12584416992884426,-0.24435071695407326,0.004489714778151573,0.04140122757238173,0.05988866468133589
14.783082763671878,-0.05395965015950494,-0.10659380078873934,-0.19323262102424046,-0.022492944357469638,0.020269923594903694,-0.00490014751017644
14.803082763671878,-0.04161252360232215,0.0780992705328715,-0.1629015544926844,-0.03837021921968629,0.04882785900873385,-0.03953640555784936
14.823082763671877,0.09373150414509346,0.4158105207491895,0.024089446856691968,-0.019755249222359866,0.01292832681918042,0.03556931686779857
14.843082763671879,0.014298064105331451,0.3373254756027582,-0.10258302248108861,-0.015576028847747636,0.0007949101486460381,0.051298619089006986
14.863082763671878,-0.2138954686723339,0.15990798456154454,-0.12333316432027748,-0.046320668614749226,0.0022304934546492684,-0.004616768527349332
14.883082763671878,-0.19433282299188184,0.395287211634911,-0.24479336286867512,-0.025980389182016048,-0.008981100912038426,0.023418738017334094
14.903082763671877,-0.3027822179869251,0.35346724834162774,-0.29911048149589947,-0.027083636324579406,-0.01702481769231284,0.07209777332695635
14.923082763671879,-0.3005692978737066,0.11783656743629102,-0.37059171397446283,-0.02858643285988658,-0.005487863866828511,0.02940629359658245
14.943082763671878,-0.5502723892500071,0.1689694030153387,-0.3674627641360308,-0.03559954797650005,-0.029260890771978076,-0.010713376352939171
14.963082763671878,-0.722309170208462,0.27943530461546195,-0.4072189833336756,-0.0196575178478373,-0.014522382839465546,0.04457678701364115
14.983082763671877,-0.8359634429542886,0.054026615798084,-0.413548074900935,-0.01277922885260982,-0.02549826993032682,0.03599463152715182
15.003082763671879,-0.6459887717622321,-0.07429209502714912,-0.4793582987861801,-0.02692163019420142,-0.020214150929444372,-0.01946630645230878
15.023082763671878,-0.4893491155974101,0.10702423829312363,-0.5506542854984591,-0.01847379559886624,0.00999521225114744,-0.005041201466990936
15.043082763671878,-0.2962455152054974,0.09030544667470677,-0.3914369469868539,-0.010302844010383195,-0.025272067062145638,0.020945961951364674
15.063082763671877,-0.2633278021296876,0.031546838291198934,-0.5068563532800642,-0.005846287959069117,-0.004581237419219514,-0.0035928607199899472
15.083082763671879,-0.31560168512386727,-0.0446998340668411,-0.3514499825393006,-0.024342762066274178,0.011358592847876077,-0.023885078291582415
15.103082763671878,-0.37826205609276403,0.05428420492839065,-0.2129102110859588,-0.0036823989012233203,-0.008975407704120308,0.00029509682179137335
15.123082763671878,-0.35360968541478344,0.02927882075507378,-0.19801488045933405,-0.007282529060512694,-0.008646399459497595,0.015559880678834362
15.143082763671877,-0.39084216501899777,-0.09153831192528378,-0.126084995363737,-0.018969223976089758,-0.0018900781796357383,-0.026363937408883546
15.163082763671879,-0.3648998408131359,-0.03009710850540733,-0.05699587233944006,-0.016097081590406535,-0.02686812370941555,-0.012596737614342787
15.183082763671878,-0.4002801332361562,-0.09045628339837414,-0.20130423494345034,-0.0009485724589427643,-0.021886663980400234,0.013614968465471248
15.203082763671878,-0.29956219450380983,-0.23470057866342015,-0.2786207674031319,-0.020343759298195225,-0.008448786268553513,-0.009398239269425518
15.223082763671878,-0.2460075994376069,-0.25640118792416494,-0.20740395518621002,-0.016819233226818754,-0.02400876823940653,-0.042449052768955636
15.243082763671877,-0.07878675336713108,-0.046382376380615736,-0.28907048043000055,-0.012170881224638564,-0.02501852011486363,-0.008287516873615819
15.263082763671878,-0.1722896595621471,-0.049768300666129736,-0.23366220507603885,-0.011316271017146894,-0.0007765911825415785,-0.0151182351662578
15.283082763671878,0.009708793733663455,0.04486444322046668,-0.13621425698770231,-0.010466755352688753,-0.03533622774620065,-0.037376500746426226
15.303082763671878,-0.2027011528800228,0.17516013681158338,-0.08161340856312947,-0.0051119676370150295,-0.008306165090463703,-0.02421894805348065
15.323082763671877,-0.061043393754002064,0.27244832875563624,-0.01161563410459079,0.0019710519768008717,-0.0180076574659296,-0.002459315375483181
15.343082763671879,0.08774233269320682,0.20964362126428351,0.14057461344217506,0.0009869450877054125,-0.02632794953823027,-0.008467282477268839
15.363082763671878,0.29057534954448944,0.20919827694029372,0.1617318757627058,0.0015360583296028817,-0.017172910271249845,-0.016021768837001262
15.383082763671878,0.46297301552146813,0.2799747922255784,0.27231184833599736,-0.005061070676993421,-0.035636328521991674,-0.0022454385318680732
15.403082763671877,0.48016896789020996,0.2618438758924624,0.2792890466272285,0.004380877880272393,-0.027798768342003493,0.011011370520149739
15.423082763671879,0.5187867013533379,0.217203867604169,0.27580995277376186,-0.004415979833528711,-0.04534021872142624,0.011751961049574875
15.443082763671878,0.34640466839867934,0.1834059809283541,0.22800202723946134,-0.0021663334006408927,-0.027778334929033983,0.010301120576601451
15.463082763671878,0.2620730007413912,0.20690605071564155,0.2526972378933645,-0.002803444217485769,-0.03916280989753745,0.01789709364115131
15.483082763671877,0.3013280205994323,0.15540239600761557,0.24227447809463815,0.003628162198190286,-0.027002790002489382,0.02601066741096001
15.503082763671879,-0.365707944181709,0.0655465384928304,0.20508558784454972,-0.004090746144498671,-0.01545442877740118,-0.012330240490066181
15.523082763671878,-0.32910985071725857,0.11528079605087212,0.4075544493306027,-0.019474974823705533,-0.027863322692844354,0.010675802755603049
15.543082763671878,-0.4752706304394619,0.07459678747807351,0.45168344646619996,0.008715240603440864,-0.02672367068969294,0.016020230986917593
15.563082763671877,-0.48123977512073085,-0.16174532004696282,0.4314771203361601,-0.030768239253403724,-0.020145755893852105,0.0023436741695596975
15.583082763671879,-0.4747969986225808,-0.0971780067358426,0.3535159912558709,-0.008912797205279923,-0.02831514613942898,-0.019759456921046508
15.603082763671878,-0.3994644290697566,-0.09709117707047836,0.38753073050187953,-0.025308033089683376,-0.03796818396505679,0.009785311441109697
15.623082763671878,-0.6989309413981013,-0.1280826820204696,0.30993342373611826,-0.012942263186590886,-0.018553753198662506,-0.007996465756781227
15.643082763671877,-0.5963325656698891,-0.01407478273316273,0.35403196950063914,-0.029500656640792447,-0.034266152839786436,-0.022009720801898437
15.663082763671879,-0.7071305597901034,0.023043001889710216,0.27868762514160483,-0.009276043874386514,-0.03874344601715444,-0.020824124814715614
15.683082763671878,-0.6832194261091673,0.13095674445599184,0.17762392751623682,-0.015562644388276665,-0.0473128151361986,-0.005510137098942141
15.703082763671878,-0.3204033986402186,0.127582125530783,0.34849749324497686,-0.025112274554441337,0.017164431897417558,0.028019737604376208
15.723082763671878,-0.41577322904769365,0.013525859718386197,0.6602948214795231,-0.011187414202987437,-0.0728050971248032,-0.031659597629116305
15.743082763671879,-0.15237877747226,-0.05274873391603481,0.3086359811564577,-0.02825339613459771,-0.05720116718666368,-0.015318987179780552
15.763082763671878,-0.04178478102078853,-0.041379219543130084,0.2521907956290016,-0.01786054676523274,-0.06356615934706912,0.02196938039863165
15.783082763671878,0.25120312145929075,-0.2892522820828312,0.28938873064118975,-0.017534192163285313,-0.046417755690938825,0.015498518264003716
15.803082763671878,0.41248419006723674,-0.3074681853088413,0.22244808459344784,-0.023822155112278275,-0.07764172448240172,-0.016062715292966257
15.823082763671879,0.4184027570122502,-0.27245834137743313,0.04597206142997317,-0.013828231987218114,-0.06882108923863117,0.009751383111135482
15.843082763671879,0.41896843896076486,-0.24472847585725085,-0.08581711249828379,-0.015714732051193604,-0.051038466320229944,0.026762271892922893
15.863082763671878,0.5780197337373819,-0.4197452265897116,0.0419233989493484,-0.015165491816518849,-0.06791739352512867,0.005028553559985343
15.883082763671878,0.23183789536279154,-0.2952272206876209,-0.01672856307162038,-0.009786567242385717,-0.06112070930292266,-0.018840568077258008
15.903082763671877,0.055018897883163276,-0.11894488589239557,0.11825760683315416,-0.0120467569260237,-0.06485008289776535,0.017971331995192054
15.923082763671879,-0.2557468437061898,-0.010374151008529033,0.1079312171673853,0.016906819607369082,-0.05034967520257923,0.015583622735606583
15.943082763671878,-0.2779017629430847,0.00203083070069789,0.21933799645468421,-0.010251969867554944,-0.0614324134502165,0.0007296840298720381
15.963082763671878,-0.37204348602211545,0.1913662265122379,0.22831757195538654,0.013893432329442604,-0.05215940142246183,0.010253651741683386
15.983082763671877,-0.42386208916664825,0.21397502016267886,0.4195497135041671,0.002198402154105709,-0.06004258711943649,0.03824615038076938
16.003082763671877,-0.6878296366625447,0.1632060347783933,0.3229042414306009,0.014944342548992634,-0.06687517004664086,0.009889114931142926
16.023082763671876,-1.012241364937347,0.14975037141897948,0.504306207479073,-0.010446384384882204,-0.07765687265097135,-0.007139327573064011
16.04308276367188,-1.2717723417935838,0.2355619126156783,0.3259350055914808,0.015138453571018132,-0.062444550783411164,0.006266914218354389
16.06308276367188,-1.434825841028568,0.12193667469606893,0.4029517656320155,-0.008026879906451049,-0.05886821599886146,0.005298024555082713
16.08308276367188,-1.5171566185901264,-0.044015604843076296,0.4580962569063676,9.509746741220382e-05,-0.06375447079351493,-0.04267660857877488
16.10308276367188,-1.428651700117475,0.08610167147018656,0.5395079656161134,-0.01800157256517345,-0.08353281596833152,-0.04799900935524171
16.123082763671878,-1.358925084046834,0.18521154861626757,0.4199220785423458,0.0002178522112167219,-0.06922323535738652,-0.03800381710251894
16.143082763671877,-1.1600138945721146,0.0935056912531366,0.4304647632719642,-0.01938141053375119,-0.07642028988930394,-0.04471078437810003
16.163082763671877,-0.7525785492089424,0.07146044841994298,0.3512726417048906,-0.011229649592816518,-0.0751763652962935,-0.06364237095328318
16.183082763671877,-0.5511573854651978,0.07594069954083064,0.3656386360206541,-0.017096026094175928,-0.09499892566514717,-0.06329316640785107
16.20308276367188,-0.31067811661132233,0.18740909616500862,0.22745093740974726,-0.007238605843265079,-0.07746230913832292,-0.04122624011898381
16.22308276367188,-0.17231914108553284,0.07038093089794345,0.26897105014079836,-0.009478596393858396,-0.08719540985724034,-0.03588151109760814
16.24308276367188,-0.035598202391554624,-0.024969264386893283,0.18519446722550975,-0.00492022145350197,-0.08704931326281967,-0.04561188249030887
16.26308276367188,0.1435982730707601,-0.050259651164930655,0.1890092921019686,-0.011473945093040602,-0.07739998623663255,-0.02418145155197513
16.283082763671878,0.16559879241539463,-0.1336179403202275,0.2780942884768187,-0.0026217466631044545,-0.08910036372104568,-0.03061491141498342
16.303082763671878,0.24866128641804172,-0.09279786250388526,0.2302056906213311,-0.011754925448648063,-0.08300291208919448,-0.03205242419018103
16.323082763671877,0.12517434894314208,-0.058507182438565786,0.4132999610007069,-0.012090340757115924,-0.05563385532881012,-0.029091437078375873
16.343082763671877,0.10213280764412924,0.028386230837019077,0.47952294675106655,-0.002299358007852695,-0.10991921166870529,-0.033109069185281455
16.36308276367188,0.050066905359506045,0.06233727260095627,0.25933165210365783,-0.003827104444658249,-0.09280258191254807,-0.01560509712566295
16.38308276367188,-0.06948073810142362,0.02374688025313378,0.20739757126151748,-0.0069386744708709695,-0.07340825509483076,-0.03677966336102566
16.40308276367188,-0.09316875392549348,0.060663609395759197,0.2431592043260008,-0.007118009633094898,-0.08253386407307159,-0.03093582564866976
16.42308276367188,-0.013351066568009681,0.11393883224425815,0.2465062230722865,0.005340327436877006,-0.09295935438482264,-0.012426459237795803
16.443082763671878,-0.05372173740096503,0.11583545716278222,0.2929619044056316,-0.0011049965064161295,-0.10120743743125334,-0.018434418113034957
16.463082763671878,-0.232976063429576,0.16089862899983343,0.3857594981083208,0.0016610669723683676,-0.10631841283531213,-0.015438471067235253
16.483082763671877,-0.2755016534126663,0.18095963488173267,0.44394356536754326,0.0013970152111734127,-0.10828844252551603,0.008499583553520294
16.503082763671877,-0.32571153150113397,0.12039899649226998,0.4167714665704904,-0.0003731710185077187,-0.10932005887851441,0.013176771952807961
16.523082763671876,-0.427373367913197,0.07483580002693796,0.49834590254097966,-0.011313431379703136,-0.11369866788072402,0.005787864370931654
16.54308276367188,-0.5609370308597246,0.12238039139339639,0.45148500295743343,0.001524805891700415,-0.15530818063912327,0.011391205437467493
16.56308276367188,-0.7783980443599853,0.05327511949759526,0.29729785059190916,-0.008307026923825664,-0.13005358156013933,0.030839613406866036
16.58308276367188,-0.836990763830273,-0.18041066040338602,0.18365398523983315,0.0021643907912343606,-0.15878093940500787,0.016701550238836616
16.60308276367188,-0.975973194815391,-0.25823687460806277,-0.013760511507391562,-0.006294495156799852,-0.149294762036838,-0.0019989084337385804
16.623082763671878,-1.1106831806863318,-0.32775869223824977,-0.009690608482542702,-0.0049545801326377654,-0.13305848493878497,-0.0024232699809263168
16.643082763671877,-1.1343978083712885,-0.30679295677993046,-0.08909288460372039,0.013096247244140047,-0.17985599456855442,-0.0007186188575293508
16.663082763671877,-1.3582992072428404,-0.35292129146085927,-0.2300012035542924,0.007268156274000468,-0.13602946314792422,-0.010690673688738196
16.683082763671877,-1.338393461434113,-0.3527160141233699,-0.16440031567139013,0.014641344099356666,-0.15363980980469616,-0.01972073048800061
16.70308276367188,-1.2317355239660392,-0.3474685744478127,-0.1899448949144793,0.02734007325529146,-0.15691473547926826,-0.014564015697190276
16.72308276367188,-1.3901453909926689,-0.34312773657305795,-0.14824302357756947,0.023545256821184454,-0.162313060225469,-0.034951335386078135
16.74308276367188,-1.4219313025236728,-0.24075393347989285,-0.14241059348961185,0.03486793022663994,-0.16645815739377615,-0.04178101446234259
16.76308276367188,-1.4972020943925082,-0.20348609606615664,-0.07235994536733323,0.03433582786434317,-0.14817125349179947,-0.031469940585016634
16.783082763671878,-1.447461961387444,-0.2363588505793568,0.03697412068669384,0.0380910288874048,-0.159647233477848,-0.032031264486375846
16.803082763671878,-1.424026098250122,-0.17766439213854904,0.15286475122881318,0.03149732272214991,-0.16136048847910475,-0.0480988625692074
16.823082763671877,-1.3696890109525357,-0.0679004043680131,0.24916781612856032,0.02841386869803482,-0.17407594004168728,-0.06264614491693934
16.843082763671877,-1.345574811133292,0.008473610754087783,0.3884008943541508,0.020733352777335155,-0.16729450397538914,-0.03998370673046104
16.86308276367188,-1.4168835358989558,-0.1137130206331268,0.40019426920677376,0.029048799004328055,-0.20842970238035724,-0.048495322318477994
16.88308276367188,-1.6996580251741535,-0.32475636417871107,-0.16468454327223764,0.02802539238440033,-0.25111143132841335,-0.0776952964172937
16.90308276367188,-1.5710837890329,-0.3541799056314341,-0.6774209841303547,0.006699465052955183,-0.16606438122985634,-0.0683956542016025
16.92308276367188,-2.144928708753826,-0.6523339945039177,-0.3322976105701514,0.021775019189795193,-0.2080444964958686,-0.10292038736468868
16.943082763671878,-2.1366126553462186,-0.6384601749986887,-0.5582106271679969,0.03509412577051459,-0.19502481602125,-0.11216753177767384
16.963082763671878,-1.735001775926775,-0.5213126723056045,-0.7077186665554239,0.024646818991051818,-0.18818701666197796,-0.14062779343884907
16.983082763671877,-1.8070392051969393,-0.44324380256982887,-0.9059749736427108,0.05998533562705182,-0.25613423648394773,-0.15844268855374496
17.003082763671877,-2.4423162830734757,-0.6981087421555768,-1.4399364035852409,0.0563939110766711,-0.1970149395186206,-0.15114939055882037
