seconds_elapsed,accel_x,accel_y,accel_z,gyro_x,gyro_y,gyro_z
0.050818115234375,-0.0828161755756475,-0.265882641005516,-0.1787012011587619,-0.0033755996264517,0.0174674410372972,-0.0927399918437004
0.070818115234375,0.002862739131338029,0.13279037149258066,0.09667224066464461,-0.01716698413452567,-0.0066681465934982035,8.321495484898676e-05
0.09081811523437501,-0.03816008343732821,0.27214854817874723,-0.13462263829328833,0.03599101787491658,0.0029339919609894702,0.07715192912150544
0.11081811523437501,0.028190306585180288,-0.22502354451265938,0.011534677087604056,-0.020786638379050665,0.003610511392449452,-0.029876049287990338
0.13081811523437503,-0.018966268260967124,-0.0821093990168206,-0.08265192718480913,-0.005123199127739121,0.007604291588005053,-0.058632264518108664
0.15081811523437502,-0.004827640558986135,0.24486657142404525,0.060764022406713636,0.007439508345085571,-0.006672056733329164,0.05418370331670504
0.170818115234375,-0.07434201695400007,0.033965804992073245,-0.06342100291185558,0.01211331389372169,0.002248884837573957,0.030528882435161567
0.19081811523437503,-0.03792714077633032,-0.19779346201926404,0.011171895655104925,-0.018925988141649728,0.004447889760249194,-0.055315861995380994
0.21081811523437505,-0.049795195067524334,0.13914414076117143,-0.03965013343047234,0.003503756428502366,-0.0002156504516241578,-0.0030676397334774242
0.23081811523437504,-0.015117091291093131,0.18443585258819853,-0.008816557699422332,0.011765087622114024,-0.0022735591700268703,0.05370065264084485
0.250818115234375,-0.019609554466038657,-0.10860292155937386,-0.078256363816777,-0.005030196007705506,0.005504930153317193,-0.01991687366164152
0.27081811523437505,0.006073744999565382,-0.05569452794262416,-0.039009634475996716,-0.010139903260601803,0.002894698029480213,-0.04019180796837449
0.29081811523437506,-0.0003613709913958725,0.19206514369684685,-0.03875754992480458,0.008054218841220658,-0.0034423011238501064,0.030968928997550497
0.3108181152343751,-0.016279709070662802,0.02020776781196279,-0.04301121912848101,0.004787830256879089,0.0015591973327961728,0.02185162744376781
0.33081811523437504,-0.033565358516867955,-0.08691024566907803,-0.055613486753464676,-0.008877415979006422,0.0024335551601233226,-0.03528137875564974
0.35081811523437506,-0.04784803930104577,0.08548947113361045,-0.03462342148128849,0.0011736414017908937,0.0005977918783519109,0.0001291873492479945
0.3708181152343751,-0.05268086100589924,0.13794329206072184,-0.03763196617532555,0.008495393116990683,-0.0032739633740067036,0.03370036903845855
0.39081811523437504,-0.059587381322389776,-0.05283755106687837,-0.028858219265070886,-0.002255226719019341,0.0014511965420680368,-0.009155394572906508
0.41081811523437506,-0.0576503656263985,-0.026841066566524876,-0.03149095320092915,-0.007430853496819573,0.00039417309523411275,-0.022152758883286806
0.4308181152343751,-0.04619867906793162,0.11137754964949537,-0.034367723383066685,0.0069085863238481345,-0.002810815147936668,0.019186438873692434
0.4508181152343751,-0.039168564604039724,0.006689892863029591,-0.058884080982938625,0.0009468508662642324,0.002114208262873716,0.011638177854442485
0.4708181152343751,-0.05006581789608597,-0.0791884198179267,-0.024064222100289478,-0.004735714765919849,0.004640258739676179,-0.02392732696861497
0.4908181152343751,-0.025456960853457933,0.0402857982725035,-0.023907348428418896,-0.0011685033347328718,-0.0017466255495170654,0.00014760213524510566
0.5108181152343751,-0.04343665637012224,0.062372346513961036,-0.032681018429619325,0.0057982780463883155,0.0004924133123061258,0.022145963584694433
0.530818115234375,-0.04415413951999804,-0.038907683448082896,-0.01745936535171269,-0.0030253912331974554,0.0004382912495504543,-0.0068767178796346525
0.5508181152343751,-0.05422137196872817,0.004846143913685467,-0.03264764239451186,-0.0027926662746823325,0.0007194674149156969,-0.01435630322922472
0.5708181152343751,-0.04270585644715411,0.10763912232184539,-0.018865234849824258,0.0021811206400516184,-0.001960799813992628,0.0165818011841746
0.5908181152343751,-0.02829326930256971,0.030562147655546608,-0.038498833432784825,0.002196542208468215,0.0018142344133123727,0.00811024403251567
0.6108181152343751,-0.022314543506756268,-0.016794773951390847,-0.026568706574093583,-0.005263380429793226,0.0010364245992844341,-0.018847375102255412
0.6308181152343751,0.0006542140056934151,0.05279822721272842,-0.02313041244767505,0.000742503974803902,0.002435967599932969,-0.0013264911514869083
0.6508181152343752,-0.0016015013182906386,0.06761257567478532,-0.03108373258930042,0.0028458201759830807,0.0003826289440020526,0.012057016430821148
0.6708181152343751,-0.019234583265384273,-0.011647640096143124,-0.04749849767818155,-0.0024462957763970953,0.0037636495307558073,-0.0062300417569069845
0.6908181152343751,-0.0082195233339656,0.012602305053991136,-0.019802285079183215,-0.002558223476693144,0.0008945854035288086,-0.008996800170929289
0.7108181152343751,-0.033603572827235896,0.08104810635129885,-0.034762305798061846,0.004279886463448712,-0.0005315444850654533,0.011070862725278059
0.7308181152343751,-0.03541562616180829,0.021107756586608736,-0.02708843989689721,0.0016678014957151807,-0.0018883539632194146,0.0068384548992715425
0.7508181152343751,-0.036200371886309445,-0.011811597464715036,-0.039924757051880456,-0.003629673518860304,0.00025337459901235036,-0.00904304077220435
0.7708181152343752,-0.025452456892375193,0.0316413032569327,-0.04166026330851393,-0.001379759997065192,0.0007709513850033787,0.0008462750298220195
0.7908181152343752,-0.028024771719852203,0.04511044311909507,-0.050163646180385935,0.0023158523182329866,0.0013714213454761863,0.007866770919381134
0.8108181152343752,-0.016673323690903515,-0.017174552657089812,-0.035051032110308876,-0.0028507803711470448,0.001645797445284284,-0.004717005887265002
0.8308181152343752,-0.015548847684741776,0.007040942201117407,-0.050204284254002994,-0.0012488598031663728,-0.0006069625916577896,-0.006022962896312694
0.8508181152343751,-0.037161924661180464,0.047891900211713676,-0.04535346007695619,0.002754397085989032,-0.0009640251373175567,0.006146928710872297
0.8708181152343751,-0.06002401326080218,0.0269090874025621,-0.03243555548367425,0.0026192411674289006,0.0002465816485601421,0.003576356459453057
0.8908181152343752,-0.06690604350267183,0.019050762165036393,-0.006172692434803348,-0.0023903033983849417,-0.0019177676268217875,-0.005357108094456985
0.9108181152343752,-0.04712676028685193,0.0705034892827429,-0.010768204998734841,0.00281667853546323,0.006261871211178177,0.006710727319764333
0.9308181152343752,-0.05309749450071257,0.04078796039765417,-0.03312727246453263,0.0018331178524266093,-0.007645691082498582,0.0016887847509811345
0.9508181152343752,-0.028743938682305903,-0.02292326797196518,-0.04937148728528349,-0.001222753756451246,0.004457862873353544,-0.006361692510026136
0.9708181152343752,-0.03451021446097897,0.014691459313645412,-0.04560210909940818,-0.0015743392511632362,0.006501771783270774,-0.0036385768695593743
0.9908181152343751,-0.03450294326091788,0.0315146369816582,-0.035946076911654364,0.0027810065108162226,-0.002121272321233671,0.0029405484079734795
1.0108181152343751,-0.05886857273048293,0.023622923323990904,-0.030747109414209717,-0.00015075672987050254,0.0027279556984601766,0.002741415871118575
1.0308181152343752,-0.05507079534538718,0.024547781696587653,-0.020632786589970944,0.0009100379586821934,-0.0001484752049249908,-0.0029886107964999884
1.0508181152343752,-0.050841783644172786,0.03848477885432536,-0.003009428093769327,-0.0005119039138356966,-0.0016554648997300064,0.0030472319535980947
1.0708181152343752,-0.03022685549878435,0.04132492134570556,-0.03209053533492114,0.0019370933039248614,-0.00043728883364306303,0.0038804739316736095
1.0908181152343752,0.0016024360883067786,-0.0021761093604602743,-0.0442350354266458,-0.0009786497470177676,-0.0016006864042188464,-0.0008091052670855875
1.1108181152343752,0.008341146796485684,0.017549745671405537,-0.04218608207905611,-7.080130523332493e-05,-4.277182523715027e-05,-0.004518385902099906
1.1308181152343753,0.010372139347385623,0.03492792956542325,0.0004790364709307975,-0.0007660239068889142,-0.001800488566922243,0.0009779444515230155
1.1508181152343753,-0.011190471531400466,0.035679142534288694,0.003927992825515351,0.00034965878789874606,0.005554160655803028,0.0014593709868548068
1.1708181152343753,-0.007636318510715589,0.025266327543356573,0.03179776432853292,-0.00033076195766646165,-0.008648213017924383,-0.0035244520240024623
1.1908181152343753,-0.011283131535256967,0.04999098509056783,-0.052454320812001576,-0.0006590310368581039,0.007390967429801841,0.0016433488230927957
1.2108181152343753,0.020142351675937472,0.020358801396440807,-0.030652424356219666,0.0001597863891517433,-0.0006062701785133106,-0.00036772008173309396
1.2308181152343751,0.005749775632266822,0.01150801186940787,-0.034564069856057276,-0.0005720531179663276,0.004551136122461211,0.0012563074233033341
1.2508181152343751,-0.005278197253542091,0.041363284945133576,-0.06122605532043341,-0.000662274401738609,0.0034678278008948866,-0.0014960923664727697
1.2708181152343752,-0.021063178597937313,0.01067923379903037,-0.057701556168002384,-0.002192401147234431,4.6096672712265356e-05,0.0002444703725283006
1.2908181152343752,-0.03385481320641358,0.02564040403625906,-0.06069480018600984,0.0015759421435990683,0.0012501194265579793,0.002360102738836171
1.3108181152343752,-0.058057653957032385,0.01905070178080834,-0.042010662409092445,-1.5051263449793628e-05,-0.003939070629971851,0.0011024689187020232
1.3308181152343752,-0.07196540148305343,0.03292231329156889,-0.02424004692245191,0.0023703943156035507,-0.0017655643117914894,0.0007782317654941095
1.3508181152343752,-0.05776170183588972,0.025427294758608714,-0.03176667072292499,0.00020162051425900548,-0.001439675433335715,0.0022870191487415004
1.3708181152343752,-0.04187282906953366,0.02693218086220621,-0.03225873812651302,0.002275702063131557,0.0011294458102026213,-0.001606479266038429
1.3908181152343753,-0.002299062030385947,0.016000944136112475,-0.019594146937350246,-0.0011873692491555787,0.000741260721387009,-0.0022168223886416083
1.4108181152343753,-0.017020565713169636,0.024789536796479637,-0.022738877332372006,0.002617339653150994,0.0012625971569761312,0.00024315948821189564
1.4308181152343753,-0.018919557285399038,0.012228051651628827,-0.012013924491194634,0.000189326817144309,0.0029553102996619247,0.00017224148442926708
1.4508181152343753,-0.048908527316623276,0.026465197010438875,-0.008126432896142228,0.0005358640741645814,0.0005283088666774536,-8.632568240959704e-05
1.4708181152343753,-0.05440349419895588,0.01773404708617754,0.006906734799260018,0.00015563227759079416,-0.0009804560361055183,0.00018610371023882263
1.4908181152343754,-0.052845564873217774,0.024536462093734984,0.004054146760456278,0.0006803703721105493,0.0015378458411799106,4.554626037420133e-05
1.5108181152343754,-0.01925907018434989,0.013819225024825948,-0.020998511732300475,-0.0013071762704642371,-0.0005174556063125229,-0.001332725000517125
1.5308181152343754,-0.0027519974539845318,0.005050127911644573,-0.023228928307919637,-0.0009273982052143316,0.0014234598519087037,-0.0022811572346498406
1.5508181152343754,0.003269123646568819,0.01875857260526379,-0.024197766763682165,-0.0006352137263148089,-0.00053924788847726,-0.0007541116291782499
1.5708181152343752,-0.004725694224835734,0.011638791657075313,-0.034254868311335,-0.0003743129841500628,-0.00022540952703493879,7.858339818793532e-05
1.5908181152343752,-0.016577500824737346,0.02115834576705602,-0.023998637998564942,5.112519906304298e-05,-0.0005041242033214193,0.0017375720490192396
1.6108181152343752,-0.015279361538421028,0.03310607840017251,-0.04389588680929792,0.001498246545579753,0.000682518687739987,0.0025217677177320204
1.6308181152343753,-0.021854078782264433,0.01600776450307871,-0.058704295766030506,-0.00023698925436429577,-0.00015025979483910873,-0.0033257717882196054
1.6508181152343753,0.01572869846377745,0.009059999607876946,-0.027142224391423123,0.0008753298587205785,0.006382130858608445,0.004354309548236725
1.6708181152343753,-0.00358134670498799,0.010385081630773297,-0.05576878001436926,-8.639030685621542e-05,-0.010883006924110624,-0.004246211628686986
1.6908181152343753,-0.010757408148663713,0.024290185882612968,-0.034216888962944704,0.0010320733913086661,0.004148480666166823,-0.0011160438855375983
1.7108181152343753,-0.022776247523645668,0.02274420721937734,-0.005771466794177233,-0.0005123891823366959,-0.0025605990961705045,-0.0001754222608798153
1.7308181152343753,-0.04576230532856008,0.03927902028580713,-0.010373871597174646,-0.0002131773447068675,0.00404120535499477,0.0014786956476976773
1.7508181152343754,-0.028258074799269332,0.0474604917531308,-0.011489002109848167,-0.0005085863190571617,-0.00021291481825918898,0.001779532729233597
1.7708181152343754,-0.022652493486540373,0.029037788093629155,0.0023935871636107425,-0.0005136703598083111,-0.0008643171728140413,0.000901656214994563
1.7908181152343754,-0.033572290786242624,0.04210144294466793,-0.004320512362223486,-0.00012523563838488813,0.00519833508158435,0.001371943021262587
1.8108181152343754,-0.04328450822161609,0.02658013940786244,0.02524712998534974,-0.0008515927137596112,-0.0008292036183843148,-3.71031675695412e-05
1.8308181152343754,-0.07400125346799076,0.028217815187730463,0.02388805561256317,0.0013631531489187404,0.0005966391724336024,-0.0005716167626931247
1.8508181152343754,-0.050900596616287534,0.019207787431734426,0.02616761458737933,0.0005845351690036792,-0.0016691385609536112,0.0019147848595671886
1.8708181152343752,-0.033105403190205,0.008378951324442897,-0.014778230392333103,0.002929530447201194,0.0010346472282260152,-0.0015868464986720464
1.8908181152343753,-0.01155437211367266,-0.001290682495800839,-0.012907149946582706,-0.0015230409457904306,0.0013315125828157342,-0.0013598646842065956
1.9108181152343753,0.008412560212312794,0.007477119190134872,-0.03546337743135603,0.0013923523176620238,0.0018870814597769239,-0.0021889948032790224
1.9308181152343753,0.008262397256787742,0.02147153254715765,-0.026923231479007787,-0.0026082147760164254,0.0017716871077812708,-0.0013383104788693009
1.9508181152343753,-0.0026726289048235687,0.02087160590931809,-0.03534060541991205,-3.22618894762974e-05,-0.0002798084623281693,-0.0008045060700886392
1.9708181152343753,-0.013023004792207454,0.03387854329184102,-0.01657228136041488,-0.0015358897253745388,-0.0009111792480354136,0.0011118075166365639
1.9908181152343754,-0.01844620271727574,0.031997328149627885,-0.02224290618118093,0.000468203171696837,0.000760278014260855,0.0017320373261253536
2.0108181152343754,-0.011805774508414715,0.026700751581827407,-0.028348600126164965,-0.001011540075572417,-0.0023591990983203043,-0.0007220704464237372
2.0308181152343754,-5.6496876146775494e-05,0.023548389562815856,-0.05854994363044984,-0.0003365695800376662,0.0008990945931399669,-0.0005183020873214735
2.0508181152343754,0.01897011008260312,0.01261299745190241,-0.0546582487486308,9.186444012133699e-05,0.00030710492293485847,-0.0005379453218795231
2.0708181152343754,0.014481503496578512,0.022661873896154767,-0.027465258812649142,-0.00056031813425728,9.934470930978643e-05,-0.0007118401668018314
2.0908181152343754,0.004229040340685973,0.02785571630254352,-0.026426740598499254,-0.00023642589454642043,0.001657191482761865,0.00103542217645769
2.1108181152343755,-0.006765145844172955,0.029600286111843246,-0.004051877558100264,0.0008749159860842857,-0.0012208328792952393,0.0004950196084641747
2.1308181152343755,-0.014324740647587524,0.024789017174992864,0.0058425937014295005,0.0010995591019102992,0.0015871478874661287,0.000617686399320714
2.1508181152343755,-0.03535078079412368,0.02237198089629169,0.0011901506078489659,0.00035412307842858516,0.0019387932041901878,-0.0007662191807996606
2.1708181152343755,-0.04485416842314552,0.022402420946810282,0.01958001187645348,-0.0006797384439718046,0.0008833520894474837,0.0006700502604896208
2.1908181152343755,-0.05900850455347051,0.027764998312649763,0.012926494653568687,-0.0005729897846577348,0.0009578574173348934,0.00028501279596356374
2.2108181152343755,-0.06638914749806572,0.027430792939962756,0.022321321726831166,-0.0018096523998890105,-9.383533264663136e-05,-0.0007433059977700519
2.2308181152343756,-0.04601358407473872,0.03543242029820519,0.004422540873559245,-0.0006329782970379041,-0.0019354037943003814,2.2087518120399937e-05
2.2508181152343756,-0.0379355400747986,0.014649190736680652,0.009416849000331644,-2.672980590797318e-05,-0.006208818225471317,-0.0011557796051626537
2.2708181152343756,-0.029197295080090457,0.023628174156891234,-0.02485988230875505,-0.0018393603135028473,0.006069102425282197,-0.0014181784215528638
2.2908181152343756,-0.017520099846741424,0.014953102053012004,-0.0007700200071850494,-0.00150857879133874,-0.0011690910410950262,-0.001545144338005922
2.3108181152343756,-0.02823690550751472,0.01938812677475427,-0.010599927980293418,0.0018443099715503084,-0.0014311666441681528,-0.00038383126416663475
2.3308181152343757,-0.006337169147231915,0.0306736887320736,-0.023344843364080207,-0.00031320335199595394,0.004691028689503197,0.0014800699491737362
2.3508181152343752,-0.014240218755849104,0.02095557021960347,-0.017171556115346157,0.0011266726585021306,-0.004227689865281787,-0.001679339706084264
2.3708181152343752,0.003750453406023511,0.027842773413853363,-0.02793781466336646,-0.0003425633992658366,0.00408475477994007,-0.0017792157854335687
2.3908181152343753,0.0013439697185562143,0.025533242060544893,-0.019761414414320378,0.0006482802726532975,0.0022380366618734563,-0.002150306541814909
2.4108181152343753,0.027185624743887235,0.029831649381405312,-0.018318408335745252,0.0005219331508825233,0.001192018189578287,-0.0018823445576504152
2.4308181152343753,0.017962787506107917,0.03064153384438151,-0.03349026566297775,0.0005506228992673231,0.000878894657258676,-0.00199544376060206
2.4508181152343753,0.029894248290640017,0.04089200901236496,-0.045912981603437854,-0.001585510245339557,-0.002361320310226781,-0.002751811763581923
2.4708181152343753,0.028474552780707336,0.05048508860626957,-0.07414930380138318,-0.0015803734679227435,0.007964355939293295,0.002328749771783177
2.4908181152343754,0.012752809768391792,0.05744442881867092,-0.09010355900259244,-0.0001093330439785293,-0.00549194027285459,-0.00025673868433676104
2.5108181152343754,0.04502610453430238,0.02623886464454482,-0.07478917282821716,-0.004953527556625725,0.004168826362871192,0.002977746777121871
2.5308181152343754,0.02068910807295142,0.04452049479060251,-0.10314247884948113,-0.0003497051662104194,0.005911448652819724,-0.00010969602963932862
2.5508181152343754,0.023283794463256888,0.027403088753019358,-0.08486662627282222,-0.006109065569380921,-0.002097152681203723,0.004526399509168362
2.5708181152343754,0.02430441171323914,0.0162281442193923,-0.053770872390505764,0.002186150630188478,-0.0014048444217412712,0.004814569368981697
2.5908181152343754,0.009422326601892045,-0.004567483789035494,-0.033896701382694974,-0.0050686303817724715,0.003566245419341269,0.0011660129614168672
2.6108181152343755,-0.0007654599094102723,0.005123835500332436,-0.04211742907252599,-0.0009315757997814057,0.004076413784980258,0.0023930032678520442
2.6308181152343755,-0.0036479954467052264,0.023328435746210126,0.02646367320399873,0.0008828521343141326,0.0004485368769896844,0.003996200326129006
2.6508181152343755,-0.0322929817737636,0.0054522653420254,-0.0014004520378753155,0.0002545508838022553,0.0015699359371724975,0.0005959663460843435
2.6708181152343755,-0.06765278808698016,0.0257203360105033,0.013116075000245402,-0.000356894366141959,0.0024744028668866325,-0.0007879818483733441
2.6908181152343755,-0.0910300272975646,0.03914298946319782,0.038182741307966846,0.0001170929698623375,0.0007568589383469253,0.0036594806905845914
2.7108181152343755,-0.07551678822530201,0.04583466429533997,0.026507032675851683,0.000881359766800038,-0.0011504086714172234,0.0018269489994902418
2.7308181152343756,-0.08806456284329359,0.03418506619095116,0.005713575781892719,-0.0016749694299718536,-0.0029518767288841115,-0.0028050429630740643
2.7508181152343756,-0.05384064108260819,0.061140044533779796,-0.06246325271913948,0.00010505717675954117,-0.0009433435793837652,0.00012666189567833857
2.7708181152343756,-0.06113655451978326,0.05788816415308604,-0.11065864585134956,-0.0035984268886063674,-0.003938764077057562,0.0033420176402919775
2.7908181152343756,-0.0788435714170824,0.05581991255225642,-0.15261923163934876,-0.002394823648327131,-0.005046084313686244,-0.0006818104449734609
2.8108181152343756,-0.08350833685196528,0.06995611534898484,-0.25237323337678913,-0.00407138769694284,-0.008072604218933391,-0.0038657495476364253
2.8308181152343757,-0.11198828860398977,0.10253444275987443,-0.3235970855480153,-0.004675505976287292,-0.005306833817599219,0.0036996759279368683
2.8508181152343757,-0.09582883925451689,0.10644117196963503,-0.39806821515630164,-0.002943547359684307,-0.011535536078908932,-0.00048158206083886345
2.8708181152343757,-0.08215759178303686,0.1427412311611577,-0.5346932006628687,-0.006471035985670352,-0.008430713980282011,-0.005066989887063791
2.8908181152343757,-0.07512527267597154,0.15892650063889877,-0.6210733532821963,-0.008272210753520158,-0.003547704123657937,-0.0006860604283781698
2.9108181152343757,-0.0617318895341646,0.1559617020130286,-0.6418562588666403,-0.0033892752060156787,-0.006661697307764845,0.0019264944220512932
2.9308181152343757,-0.03359851218796326,0.13476709724428387,-0.7188061294677931,-0.007204113476146679,-0.006175255879968052,-0.002171646542160414
2.9508181152343758,-0.044861530926878584,0.12617410433448006,-0.783000406206255,-0.007009309618544363,-0.004561057879949689,-0.0049369544029250045
2.970818115234376,-0.04346655844718298,0.1592749298912425,-0.8074961088409607,-0.004293997992224928,-0.004362814958506505,0.0014675338079346554
2.990818115234376,-0.01110486702596359,0.1324364794748646,-0.8358374473335192,-0.0037781302965023533,-0.0001904155901717608,0.004165690079965832
3.0108181152343754,-0.0042594394620774825,0.0891402111791294,-0.8165703330735924,-0.0035879613602343356,-0.004854979396086075,-0.004720638425848251
3.0308181152343754,-0.0021216307417946025,0.11495676758793023,-0.8835909931155248,-0.0028581172416047404,-0.005803304783995305,-0.0036342229825448505
3.0508181152343754,-0.023399765975298994,0.12039637450830272,-0.9013071080953236,-0.0036633972415658464,0.0026440214744446067,0.008641196571073907
3.0708181152343754,-0.03358244487218566,0.08734411097897542,-0.8382584971737036,0.00021571715418846889,-0.008526428377516606,-0.0014839090116124443
3.0908181152343754,-0.04340608171953625,0.10648517693008486,-0.9073587711538904,-0.004822371778946206,-0.0030353039562110574,-0.0054416068593145985
3.1108181152343755,-0.10593867450642726,0.12383027995892366,-0.865795352537029,-0.004032618221281722,-0.002798830062671143,0.00384268787297781
3.1308181152343755,-0.06416421712055827,0.12766496800949753,-0.8724496659601095,0.0010684255337052278,-0.006215901336146323,0.004760341066248366
3.1508181152343755,-0.06477722831843759,0.07568620482462853,-0.8843898187458243,-0.006467620004357973,-0.006448151420369247,-0.006171301319231208
3.1708181152343755,-0.06510731979031982,0.1077401995992615,-0.9024042227187199,-0.002523713782560122,-0.0031882362851717136,-0.0034776941784649953
3.1908181152343755,-0.06459477492942169,0.13399746131750145,-0.8775758342682525,-0.0016618239537145442,-0.008615038796521254,0.007783063988373936
3.2108181152343755,-0.09684568025485044,0.0766949833054489,-0.8808329519565058,-0.0035550296677745886,-0.007741249140593485,0.0007491663205334597
3.2308181152343756,-0.10413084725620107,0.08166789592634811,-0.8760265068457201,-0.0033642723041376692,-0.007642108850165492,-0.0071904492284311575
3.2508181152343756,-0.0891406474155674,0.12453579782257843,-0.8816485058156578,-0.0031062133124378894,-0.00716011587026007,0.004867461722140707
3.2708181152343756,-0.11049175039738196,0.11189875792145333,-0.8853877102982808,-0.0007707138433978681,-0.006690210942187597,0.00447119130948803
3.2908181152343756,-0.1198705974957521,0.07564313923138043,-0.8794971010738762,-0.004024045513587685,-0.005909424713710358,-0.004776898949895421
3.3108181152343756,-0.14169868819829753,0.11044736392392404,-0.8618635187729685,0.0001676802303491428,-0.008563826351774922,-0.004039408581386906
3.3308181152343757,-0.16741608243882483,0.1522824615827329,-0.8531379208806064,-0.0004869015654840893,-0.011508636263560941,0.00607325640864653
3.3508181152343757,-0.14211572238146378,0.11649242976869541,-0.8626902306095399,-5.3152771906682537e-05,-0.007492570117621835,-0.00041468998731767796
3.3708181152343757,-0.12874187678195537,0.11321985434970874,-0.8270364247054046,-0.0013041598942395293,-0.010766607392243105,-0.006871096660752909
3.3908181152343757,-0.13372665318546623,0.13361240923062728,-0.860405977864315,0.00034194895447875776,-0.006500672754493458,-0.0008781930549009656
3.4108181152343757,-0.11558209660462943,0.11789435301109663,-0.8121611690444597,-0.0009684118794372298,-0.007418600668476917,0.002491386761467081
3.4308181152343757,-0.09624297693959827,0.09301064677287123,-0.7789608522540743,0.002600336911698186,-0.012461949036454215,-0.006777623676731048
3.4508181152343758,-0.09295652949408326,0.11991932939004127,-0.7943876024287447,-0.0013376380654183551,-0.010049545921428992,-0.0048833792514094525
3.470818115234376,-0.0905223840968903,0.13016685470198472,-0.7545078593751394,0.001033819120849286,-0.010501255278115088,0.003748867497462859
3.490818115234376,-0.06838705443448902,0.10419009951114373,-0.7298853448338376,-1.0435460416090091e-05,-0.01212915330737087,-0.0026398894184577514
3.510818115234376,-0.041544722693595035,0.0931085010023265,-0.7578182277104751,-0.003376002339523382,-0.011354820375637315,-0.008762218772133238
3.530818115234376,-0.043121017196353625,0.10103334006625121,-0.7387134476220012,-9.38583118064183e-05,-0.009758131149378707,-0.0013298515424162254
3.550818115234376,-0.03935632579776242,0.10966522741614461,-0.7328963092018691,0.0002112896548744873,-0.012807197110083747,-0.0006787772836909267
3.570818115234376,-0.027543931431783242,0.11578631149334158,-0.7333177344376234,-0.0016130907632945699,-0.01364840862557082,-0.003333100304711125
3.590818115234376,-0.003436851800230248,0.1340521900263315,-0.7119237982582814,-0.00015387195590788324,-0.01450079872408581,-0.0004217451256673942
3.610818115234376,-0.03418551370437434,0.12694361798402864,-0.7071892021863803,0.0019406665858011244,-0.019328069607993603,-0.0010452172584876631
3.6308181152343755,-0.003596805198743739,0.1272726166637835,-0.7283732760414611,-0.0014981974317364397,-0.013695087564627144,0.00043561591327424966
3.6508181152343755,-0.03518914295161704,0.12939682538680236,-0.714042918043446,6.81359322427976e-05,-0.016042041987900435,-0.003575060261138864
3.6708181152343755,-0.06986330636742809,0.13748674408776268,-0.7098113071645193,-0.0004198248448931979,-0.014027378869618676,-0.001281101382234304
3.6908181152343755,-0.09523566765421178,0.14133015090619747,-0.6919982316920863,0.003577395905371978,-0.0198106125792357,0.0004139981384305398
3.7108181152343755,-0.0732586912826348,0.13092624310905634,-0.6982459461827059,0.0011793839023793572,-0.01747007839346719,-0.0003752271490442096
3.7308181152343756,-0.07406384232927041,0.14871930740340536,-0.6883330116739361,0.0003238706489183875,-0.015487945363883903,-0.002596365525542436
3.7508181152343756,-0.03472679440649519,0.15613318788145653,-0.6324976855302302,0.00035609111933094736,-0.020176489754287753,-0.0002418580809883819
3.7708181152343756,-0.016061610512447116,0.16177908316953277,-0.6630761422015952,0.0030043433690497053,-0.012370455548291612,-0.002170028486704215
3.7908181152343756,-0.012784368648373533,0.13945192786179578,-0.6534286816431436,-0.002179398321731369,-0.017954933412951242,-0.00339273753958692
3.8108181152343756,-0.04934542825749446,0.15904565324834313,-0.6065883902677829,0.0035096046290875897,-0.01776376605362686,-0.0012338551508249613
3.8308181152343757,-0.08324948392424542,0.14422804787742993,-0.5954893021429633,-0.0007830166778770444,-0.01709484897314042,0.004707584190011427
3.8508181152343757,-0.06271838725884296,0.13302406147641901,-0.5956790856193758,0.0036371983654148506,-0.02311275196323477,0.002381767368282041
3.8708181152343757,-0.06489804145766286,0.10514849281041179,-0.585876693748893,-0.001043387127640416,-0.015175030992416754,-0.0009311223168518005
3.8908181152343757,-0.039747640676315504,0.08521200158424987,-0.5795953434945761,0.0024628992045566127,-0.01891692161291756,-0.0018726084612078308
3.9108181152343757,-0.015566844406414359,0.08726628997190113,-0.5849904545264237,0.0006185272741063258,-0.016138746323378778,0.001213881467184683
3.9308181152343757,0.009724506408517531,0.06953373001391536,-0.5709745446868991,0.001834670260514198,-0.0196030895782754,-0.002047776657330512
3.9508181152343758,-0.04417033828533918,0.05448836037413421,-0.512109878640298,0.0015391540160596105,-0.02218244271715205,-0.0024223880237166733
3.970818115234376,-0.05071696096163601,0.09411568704800799,-0.5362500727013259,0.0025316660731398845,-0.01955871582720053,-0.0009884474835232793
3.990818115234376,-0.01373244716930267,0.10801857994199193,-0.49798012673641845,0.00019060313762874658,-0.020730339989199854,0.001214351577453056
4.010818115234375,-0.025124962018411735,0.08739883747745818,-0.4970821318304645,0.004004545392417466,-0.022301135973972236,-0.008749857964756535
4.030818115234376,-0.03225611533570729,0.07871212736958225,-0.465992571034297,-0.0036254261430383582,-0.01884984527608067,-0.006522338699893425
4.050818115234375,-0.010407021626945396,0.11603160077126083,-0.45004620229734754,0.0030622980225646166,-0.021019822160231894,-0.004561103207114235
4.070818115234376,-0.04067409997938289,0.10613678155279897,-0.40880930101178764,-0.0028132995963140407,-0.0254308191537759,-0.006033543319138596
4.090818115234375,-0.1273866413612202,0.1496965882058446,-0.3783447786172698,-0.0016942898010521533,-0.018341011116002948,-0.007560292249152365
4.110818115234376,-0.04548018818312538,0.17581837527213331,-0.3572147081023107,-0.002350232543136629,-0.027934983387040868,0.001870842195897946
4.1308181152343755,-0.044925159297939755,0.13654375643548936,-0.3460583176415201,-0.0007051304672732606,-0.023993939674112473,-0.002502718575319801
4.150818115234376,-0.0524390957042111,0.08240396681981232,-0.34982218731051584,-0.007926189686656182,-0.020582339218190908,-0.009678733994962751
4.1708181152343755,0.007558291956069463,0.09294914376534799,-0.38585443930305857,-0.0032670951566761953,-0.022460892641269086,0.0006355997200440616
4.190818115234376,-0.03019752716185612,0.059872403260934834,-0.36436591023091486,-0.00628157417489211,-0.021026218607871325,-2.756280317395095e-06
4.2108181152343755,-0.009292306267170753,0.012497872998169035,-0.35817859376378947,-0.0021424195093079487,-0.0233251623501128,-0.005031858190240887
4.230818115234376,0.05036552939739977,0.026015231064537358,-0.372189618036308,-0.0031717942870956983,-0.0213137918304878,-0.0004960430264371207
4.250818115234376,-0.0014190049735143414,-0.019338087271549436,-0.33414248267381963,-0.0012651665022222517,-0.020262565752094563,0.0017783728659643355
4.270818115234376,0.054218857645578676,-0.06914309627552571,-0.36475670285369366,0.0013181758494667923,-0.01993816151765183,-0.002176060410392823
4.290818115234376,0.07709337444683367,-0.0972492465334219,-0.383323626710412,0.00018596360739675383,-0.020507773985831004,-0.007069639118665636
4.310818115234376,0.06921824763030834,-0.08822944749908153,-0.36626647745347246,0.002557094008936429,-0.012809634088700648,-0.003028010353144822
4.330818115234376,0.006098233871916687,-0.06893696966305797,-0.3151681421377361,0.009307351596370316,-0.025085123401915616,-0.004339696281234579
4.350818115234376,0.009976794658159127,-0.05907219663346397,-0.29456969615023676,0.004934779724495584,-0.019641452089162938,-0.0014990295620600517
4.370818115234376,-0.00972603496717669,-0.019502089877792186,-0.2161060923905655,0.011886761173230629,-0.02211208049186197,-0.0049349299546506825
4.390818115234376,-0.03979627748240164,-0.03397568051487145,-0.17695333091029258,0.005976637752029006,-0.01711504772630992,-0.005299340092051199
4.410818115234376,-0.006289136065656853,0.012064729450823989,-0.15615900105790345,0.011133774415615949,-0.026102901803354804,-0.011326221375614688
4.430818115234376,-0.06635410817241591,0.031190878240002287,-0.08382080089858192,0.005378601761236078,-0.017582266879039795,-0.00816797170647529
4.450818115234376,0.023629380998584432,0.06597736642989313,-0.05778557830843466,0.010362697507835588,-0.02458291717964217,-0.004989641881620513
4.470818115234376,0.03651173555721062,0.06760483502217053,0.0009940155824210517,0.006549911504735785,-0.02782792895737127,-0.004102631829857864
4.490818115234376,0.004826267936795697,0.09079760500602288,9.051110283824377e-05,0.005050860919529987,-0.02174280799218532,-0.005689896045713592
4.510818115234376,0.06788065626038543,0.1444752298891798,0.023819337335247635,0.003998490228210599,-0.03149497650936157,-0.0010701752015632707
4.530818115234376,0.0709472749038837,0.1256057658709036,0.0021334768101921547,0.0027533637590780387,-0.015704716579194398,0.008561533974744398
4.550818115234376,0.12706683588421336,0.07433680091720407,0.0393515351987169,0.0019411355449293058,-0.027697973589905837,-0.0017935160444531675
4.570818115234376,0.10648418886435618,0.07129253042031036,-0.030177143340705176,-0.004692201885997004,-0.012631322940317005,-0.009170737432287298
4.590818115234375,0.10817310363968026,0.15149991335039756,0.019727457254520603,-0.002991559166071834,-0.018306725288981918,0.008388946190997082
4.610818115234376,0.11246857408203453,0.1518809126034159,0.045254744466307194,0.003620111778518611,-0.026617998711264926,0.010348241637749788
4.6308181152343755,0.035585059043383854,0.11847374620130025,0.023976743570510117,-0.009157207511005797,-0.019703646338572828,-0.005925162080952201
4.650818115234376,0.016062452329259517,0.1262473717471998,0.03190370562254229,-0.005460024178181874,-0.02736622422996001,-0.003230924101417906
4.6708181152343755,0.07120238891438022,0.13534762606394038,0.018951044255018645,-0.003052997051909142,-0.02415107458565242,0.01397843710285585
4.690818115234376,0.026204869443480026,-0.019348423668391075,-0.014984857600985692,-0.008202970606463933,-0.015141545261781538,-0.002123551349001948
4.7108181152343755,0.07800641629884583,-0.05448859728295522,0.02269453124077194,-0.009363021837406338,-0.020082670776698675,-0.01480543965262277
4.730818115234376,0.089773561375139,-0.035493359660292885,0.053691027355852496,-0.0024772488358194137,-0.02892860363886161,0.013508397417963974
4.750818115234376,0.12019108915909826,-0.1255038166658742,0.06263143251424037,0.0012075869839673632,-0.027477843779749475,0.021354315176424735
4.770818115234376,0.18698656583168008,-0.27592155536096025,0.05918734042559607,-0.004466150553867177,-0.027592759603432992,-0.005931101261363848
4.790818115234376,0.10105275727143302,-0.2793147569829864,0.06821122127718904,-0.003809874097600886,-0.02062706809371389,-0.003928939502950925
4.810818115234376,0.16907546797855752,-0.21239417266044647,0.06787115112087028,0.0036508602535736943,-0.025088861074075524,0.018246987482730105
4.830818115234376,0.14682608563122515,-0.2995539653109978,0.10447921184151243,0.0009658260304357848,-0.02862840989561538,0.002817557972809109
4.850818115234376,-0.011103431548797513,-0.2144784419821329,0.07911350008032524,-0.0027768523874591748,-0.025217112164611262,-0.014972436374454466
4.870818115234376,-0.11907930213401616,-0.06555326858862438,0.1453742531145594,-0.00042812890652273194,-0.02914349940007767,0.005574456176406167
4.890818115234376,-0.13328454847384136,0.013896027294131811,0.13794365181720528,0.004421952419039733,-0.024941657983002224,0.008151354834637272
4.910818115234376,-0.17517124278882312,0.008362402063870547,0.16490063759893403,-0.005650399637151966,-0.02431254243559938,-0.018486503879576816
4.930818115234376,-0.15267393227534434,0.15377084477420724,0.13813497600836352,-0.0042092172715871064,-0.01708521240359993,-0.013732126784998936
4.950818115234376,-0.09933132833139192,0.22728863751977954,0.17682804502505545,-0.00042266115072588757,-0.029603586445099046,-0.00361478015007167
4.970818115234376,-0.20383818873081025,0.2597637059526326,0.04745453531063678,-0.001577725792119774,-0.028289462553290984,-0.024900296964400742
4.990818115234376,-0.4409208770405026,0.31867317402898754,-0.06101083151146177,-0.007807186251964702,-0.03485646145683688,-0.04018452708150591
5.010818115234376,-0.6114890111377373,0.4651131876778097,-0.21012443366268485,0.009495658754348617,-0.03930961770028375,-0.025353535682108727
5.030818115234376,-0.8246362090487601,0.4884080600602639,-0.40595400991354996,0.009077596656054681,-0.03902163343111351,-0.038104485008242234
5.050818115234376,-1.1486621302536828,0.4505234212696511,-0.6393214803654231,0.015186384489292267,-0.03714201950055475,-0.08529402244085321
5.070818115234376,-1.2917126463674538,0.5817237360846731,-0.8546888084414093,0.028771035661279455,-0.03831781437428677,-0.09139979084901485
5.090818115234376,-1.4684831974462107,0.6883040420386509,-1.1440559540701354,0.04940416472239486,-0.03493284746627525,-0.09818264473997235
5.110818115234376,-0.972494649491133,0.7132786582342431,-1.1702067429029768,0.04296457484068513,0.05745877641624384,-0.04175769616622932
5.130818115234376,0.5714422713722094,0.49003475328331725,-0.544647325567118,0.07954913956923752,-0.01919193550699185,-0.06554476223568473
5.150818115234376,0.7925030363696138,0.35001566511086984,-0.6801699741628978,0.07390841954020343,0.006806953202701673,-0.09873947271105067
5.170818115234376,1.5112642638538658,0.6364165253989885,-0.8155134040114478,0.07635365421802727,0.04177718840768836,0.003991005504092871
5.190818115234376,2.427683134261175,0.6425729878926462,-0.6328439052145628,0.1151432572382567,-0.004433277901635978,0.06352774177599443
5.210818115234376,2.6845883287966954,0.5212970365053075,-0.9088309679274994,0.09477842382769809,-0.006703802069743123,0.01035264980152458
5.230818115234376,1.8065760881607988,0.276524183459262,-0.4990686624813636,0.05722822558047677,0.07040987125848051,0.05222987455378053
5.250818115234376,1.0968570018267434,0.2332097492759881,0.4560656119601997,0.1294902511928745,-3.5567157095598425e-05,0.10895446970616834
5.270818115234376,1.1353554543711482,-0.16831316212665,0.5780341869894031,0.06622966296035344,-0.020136784494590765,0.11465820833002648
5.290818115234376,0.3733605595155904,-0.4469997417528234,0.5793654387361773,0.0843225285470648,-0.009007913524460735,-0.025239928137011
5.310818115234376,0.20842818316968323,-0.5094355553847277,1.1043931506186684,0.016162813939393787,-0.048232043098523934,0.0603748269633751
5.330818115234376,0.5302216303257682,-0.36493310208776636,0.8490571047493575,0.08841674341004338,-0.04717894549986664,0.08750945845084297
5.350818115234376,0.656659379998064,-1.093653135945037,1.13462493430447,-0.04157643665084204,-0.06475131576625102,0.012179799024135355
5.370818115234376,0.5575491761462913,-0.8464000172537877,0.7842877262429868,0.013397669667608473,-0.026118342232684028,-0.017652880159285914
5.390818115234376,0.8574977723148688,-0.7711750297700897,1.1705579359277347,-0.05115251653771548,-0.10099945148294673,0.12156588250886903
5.410818115234376,0.7786051686932131,-0.8220945725411635,0.4089282632883642,-0.0021099657931973404,-0.03777729347785697,0.07194307152954155
5.430818115234376,0.29954370455879137,-1.1759003102736973,0.6638411303050532,-0.1033612878799482,-0.07285172486214661,0.016248066532810235
5.450818115234376,-0.13901786714643313,-0.5876477049772663,0.18486854687062104,-0.015334521786707253,-0.054365996770908885,0.08855970933589766
5.470818115234376,-0.5267418594270812,-0.6465273500161856,0.21816721557801755,-0.06863508155292228,-0.06764458051301005,0.13105593892865602
5.490818115234376,-1.3333103347741635,-0.8030439171083188,-0.20256385264132706,-0.03807342223924567,-0.007840144753741897,0.0066306276293697074
5.510818115234376,-1.5881775270068754,-0.5246315346411431,-0.01857113308574303,-0.0664588085095113,-0.03490439197838739,0.004877191327608546
5.530818115234376,-1.9293478282079837,-0.1435820323300809,-0.34302877752823874,-0.004706506831149747,0.01576534550509926,0.05675289710941203
5.550818115234376,-1.787204445792519,-0.24056957120635342,-0.12239303807757819,-0.03377275919844582,0.005091934240782177,-0.016396935171554116
5.570818115234376,-1.6409821491151426,-0.09544795629534583,-0.20178999022646463,-0.012605733885323909,0.02143315725017345,-0.08200398677544868
5.590818115234376,-1.271002054838442,0.35295501788739586,-0.03599909450658569,-0.0019388504760455573,0.016853403590121004,-0.02950629225591371
5.610818115234376,-0.9932581821083398,0.4117595656825022,-0.09861872827813599,0.019856668160815265,0.01620879099715177,-0.026954580677810598
5.630818115234376,-0.5853690368105157,0.3101310733156227,-0.04041474588849799,0.0039056578487827263,0.02298194396032714,-0.087337220644007
5.650818115234376,-0.2555315470662151,0.4889563828145232,0.02036191057816536,0.017997550597905115,0.011267003341210844,-0.06252953877078483
5.670818115234376,0.006729944925950179,0.6578628569286966,0.08880001893527283,0.033298339775574615,0.0032339550333855866,-0.01474996244449045
5.690818115234376,0.2300176491944694,0.5063152856193948,0.15580432595214808,0.021426133417967782,-0.0033007097886404426,-0.031241890093778018
5.710818115234376,0.2547056463573363,0.47987690540072514,0.26800621960063675,0.023135020497955204,-0.002712781501250435,-0.05262967516612795
5.730818115234376,0.44685275987653095,0.5888451754868191,0.3568685583133969,0.022105303057304286,-0.018117687581299304,-0.010845752630740349
5.7508181152343765,0.6078302993972801,0.4450939170112622,0.3474725735229006,0.02781969351389938,-0.011384350136429086,-0.006409193843696281
5.770818115234376,0.8428349928413609,0.26720584593805424,0.38402497073790515,0.0035562089020544953,-0.006543617182396456,-0.04012163045130529
5.7908181152343765,1.0425513439589043,0.32381672966941677,0.34060933355168815,0.00993578162324262,-0.00399055798641675,-0.02519117012797585
5.810818115234376,1.2220765433838043,0.2976441505145191,0.3988452800162594,0.007391106134204617,-0.009274230588887248,0.011390680560751085
5.8308181152343765,1.3815792996177703,0.16015638288828038,0.27040010264916353,0.0017987027936706857,-0.00737242882506397,-0.004382465352098613
5.850818115234376,1.3516060326036492,0.07746295911795326,0.22803971278665608,-0.014127409223139152,0.003750647715881107,-0.005883959805833337
5.870818115234377,1.176513136303338,0.05918224977453646,0.19958207120529123,-0.0022072236989139184,-0.012525835635397291,0.027425873148733314
5.890818115234376,0.9967619953792095,-0.05923307183804913,0.1157989839335116,-0.010836557724976466,0.0018146621519308389,0.039283750259647476
5.910818115234376,0.7264930775903068,-0.23002805682447455,0.035627145997386166,-0.01546859327231537,0.006953961049697753,0.01032527424237498
5.930818115234376,0.5364975281983283,-0.18133785405651792,-0.03891135039761986,-0.016202373809058885,-0.0008373625386010876,0.03133138170763809
5.950818115234376,0.3545144736325226,-0.13533837158916298,-0.10017886508967455,-0.006905928428371794,0.005642687308130188,0.05926030698987404
5.970818115234376,0.15395988374729416,-0.23903301330848567,-0.05847442107670205,-0.01422199434574168,-0.00823600643532233,0.04846472093759724
5.990818115234376,-0.10131497328066537,-0.1534092548972425,-0.1361301550195569,-0.010017483933508221,-0.006902477346542672,0.035337705508542
6.010818115234376,-0.37732846079698396,-0.16153447180966457,-0.06395124495915606,-0.011161514782098148,-0.013118391753211096,0.06545836745500015
6.030818115234376,-0.4791598857897803,-0.18943846253980082,-0.13056102775921566,0.003352649765152806,-0.014523947877751804,0.055090887967137285
6.050818115234376,-0.5933052032035833,-0.27262035993028594,-0.1306383273232908,-0.01166211672344978,-0.020430111236063555,0.022136472493400415
6.070818115234376,-0.7273972352253897,-0.1785718072023904,-0.16753160162128194,0.004613534373097467,-0.012208027652895026,0.029039825374642475
6.090818115234376,-0.7644910482007097,-0.12474138543528134,-0.1365308856986109,0.009885008615476901,-0.02936923812598551,0.03790825442259919
6.110818115234376,-0.7124776474526038,-0.1763642407768227,-0.2013781756906501,0.008426120494803038,-0.010763151138584372,0.01822496887325243
6.130818115234376,-0.5951558669789362,-0.11652850157729741,-0.08232140556884955,0.00717838775468441,-0.01151253932331869,0.002951390241255788
6.150818115234376,-0.5251164016043807,0.04702944132360037,-0.12739111309100212,0.016950624089309755,-0.019156074092341928,-0.0008822777223196134
6.170818115234376,-0.44333783204454774,0.08226900384986882,-0.1540163655552676,0.008431373287541934,0.0063224033161011235,0.0038506406760426253
6.190818115234376,-0.22579519834611333,0.09767845198983033,-0.06548281414310808,0.014248243045575726,0.0074031532377056885,-0.003124403288678681
6.210818115234376,-0.009822292486467965,0.1366540550347718,-0.005121235161220328,0.006970664759718633,0.0023257387793298263,-0.0113596445817264
6.230818115234376,-0.13031452605103616,0.19744991131679268,0.024691307047836057,0.005427235637756495,0.009461244194473722,-0.015202017385805178
6.2508181152343765,-0.023618783903678196,0.31884436093226864,0.0007664329812621046,0.007480173561517621,0.01579036838753672,0.010243898425416693
6.270818115234376,-0.05021518733884417,0.22713805727004202,0.10946186554594783,0.0029751526117200748,0.012043132958908647,0.004328840660005276
6.2908181152343765,-0.10099201891426536,0.18306735843085273,0.09693690515543953,-0.0016647238693229878,0.015197623737551945,-0.018717119740372056
6.310818115234376,-0.02703597232721172,0.24827792807646912,0.08215380696700744,-0.004673120175829504,0.01728267520979452,-0.0016339404364377698
6.3308181152343765,0.10411170044329514,0.20378889258874927,-0.02308057967569431,0.003759971611299627,0.00490859317949887,0.006700533707886211
6.350818115234376,-0.059660793634853215,0.0021109805160511837,0.014360877876224264,-0.012173245465820215,0.020232240741915618,-0.01909946444711454
6.370818115234377,0.07675481113856357,0.07167803035005656,-0.05494293686366764,-0.00328765596427846,-0.0005064244665182377,-0.013253365889791481
6.390818115234376,0.10319832127539295,0.06941698569097349,-0.11738418926805086,-0.0016928164935806273,-0.0008744827535775623,0.011124395581880064
6.410818115234377,0.02281601740966113,-0.05338261285983516,-0.11065959875587954,-0.0016118535551132604,-0.0017966788207228405,-0.007774482559307529
6.430818115234376,0.07735481137526462,-0.0710162943393292,-0.14233218550620458,-0.0012641336067668156,-0.011752683976958767,-0.01517039610743578
6.450818115234377,0.030766427794660312,-0.05553272324678696,-0.19275567896356308,0.0005251765763206051,-0.007468201717808622,-0.003216977033019026
6.470818115234376,0.038193845956979396,-0.050649662453612,-0.20184808626834638,0.0063887647890733205,-0.007884778405703912,-0.0014289944268983349
6.490818115234377,0.17067256009439313,-0.09219861334939808,-0.21512671746759962,0.002151030175759481,-0.0042275194629653075,-0.00670621987885095
6.510818115234376,0.1793924599370773,-0.011592739788704672,-0.1493882111066486,0.005720066342869439,-0.00439580930778885,-0.008522891130787937
6.530818115234376,0.13984643023081889,0.04985243871105498,-0.1049815518303797,0.007855034666893572,-0.014609143646122333,0.0058473793507631796
6.550818115234376,0.09598181810000275,0.07036734747680704,-0.10915204252926829,0.009484683869005556,-0.002301766295585065,0.006591731448619561
6.570818115234376,0.10001125348507076,0.08886332959500129,-0.03143436755154698,0.0003799373133359044,0.0029195545825820377,-0.00030946288841714143
6.590818115234376,0.06599510877361786,0.09212942559252187,0.04004542410062356,0.007414092717035682,-0.00896228419766927,0.00445124650066606
6.610818115234376,-0.004627913322267421,0.0828451780551816,-0.007894913341277012,-0.0002239131069091094,0.007615157290359062,0.0065588113154255315
6.630818115234376,0.006439507897750884,0.026654336086113277,0.050264146973555905,-0.004767213468125956,0.007777686675700143,-0.0021067345642739243
6.650818115234376,-0.048844938133053434,0.01596273067523028,0.12700487709834452,-0.0007157201828244352,0.004010302647057985,-0.0001905450235347453
6.670818115234376,-0.11184409294089671,0.007761933274272093,0.06681746261046367,-0.006751901554086371,0.006758960664427679,0.007586202749461865
6.690818115234376,-0.14580384147806896,-0.05974901496367238,0.10562086620506529,-0.006571665540246046,0.0019296503526579172,0.0034407612436158585
6.710818115234376,-0.09891498202526915,-0.11923071374939345,0.07471580919655217,-0.007047186089466831,0.005299326244420467,0.005877255901572665
6.730818115234376,-0.11321286371236491,-0.18524554913034944,0.07183421113741321,-0.010682716653396008,0.0066282828854576595,0.00334721618761938
6.7508181152343765,-0.019943350630936652,-0.18535337942109842,0.03536236412206929,-0.005226848405418917,-0.005880244115240431,0.0045472124270955
6.770818115234376,0.03253983149875956,-0.18063099066169275,-0.05923089041279096,-0.009382530272287755,0.006683046762281008,0.0037360355550766643
6.7908181152343765,-0.003158381383460416,-0.16132973138927212,-0.03545261060158962,-0.00747802672898009,-0.0027823072577630214,-0.005268317281073731
6.810818115234376,-0.026646390690827557,-0.09166201227383966,-0.04155025195587358,-0.0034435996808768765,-0.005525217129397288,0.007370480283210126
6.8308181152343765,-0.06935224347001187,-0.07247610824060233,-0.06309556394017657,0.0003936383018174243,-0.004787632823790642,0.010904780648506182
6.850818115234376,-0.03859593923401721,-0.08536105570013312,-0.0629376238794363,-0.0008781850365320407,-0.005385031562527024,-0.003989952559801887
6.870818115234377,0.024220745759449713,-0.040162702136584454,-0.07583130820692843,0.0018538877860541096,-0.004370818573163354,-0.0014470082933557655
6.890818115234376,0.013312293963200564,-0.02548439996973579,-0.08275243212100514,0.00878621837611663,-0.006969693369056268,0.002824530969285868
6.910818115234377,0.07642283173678258,-0.03010468279054349,-0.11440154695278185,0.005258750143972669,0.0017742337221682847,-0.0035247750099262586
6.930818115234376,0.1136571582610241,0.023419288856146164,-0.06335683298862496,0.008317873061957406,0.003280881119513458,-0.011615433359842787
6.950818115234377,-0.014229052184118164,0.06425564187613998,0.05619973013466909,0.008452346881023386,0.002432426608914526,-0.003221044439848559
6.970818115234376,-0.11479019426118506,0.09480233809490797,0.06923916128574957,0.014452891783174847,0.0013405855792857344,-0.001442895319504641
6.990818115234377,-0.103537276307015,0.09889143351395237,0.12553220157186082,0.0069710960509577514,0.008105112599984827,-0.004962418910967618
7.010818115234376,-0.06463527489978169,0.14164360801207976,0.14813867825697072,0.011229103162084286,0.003323725201001009,-0.012771824464196358
7.030818115234377,-0.24002788498640362,0.202984841963412,0.14241387498754776,0.0023202190928484196,-0.0033705650991960002,-0.026567779573181426
7.050818115234376,-0.4239326721376883,0.3674825896009774,0.10241266471380998,-0.0012722248933910948,0.004489008226184604,-0.027423625172766034
7.070818115234377,-0.6743966515040682,0.5129973767174019,0.10992942671401017,-0.006299924247336272,-0.006028913580191821,-0.03777734442977151
7.090818115234376,-1.014291587952139,0.6369785696703988,0.12916144213398278,-0.021861649009670123,0.008389913468766972,-0.05992095870659222
7.110818115234377,-1.1741832448411111,0.8952101323867035,0.25011408697891724,-0.029918862117915376,-0.010972502561190619,-0.07547216390192889
7.130818115234376,-1.4209432364776975,1.1650792411483608,0.29249198382925673,-0.04011418198656438,-0.02065796509865892,-0.08005157418657663
7.150818115234376,-0.7219600785560425,1.366951541613751,0.13750193557689555,-0.04875864646809466,0.017093070985606085,0.006620918416491054
7.170818115234376,0.5970010184966981,0.9354420351241265,0.4380073377710183,-0.05154276352477168,0.019577027109464285,0.022834574927267884
7.190818115234376,1.1940745436187945,0.6701659169908106,0.32275097970386313,-0.06365610310868713,-0.044091594754334044,-0.10210846995652594
7.210818115234376,1.3532216428785555,1.2012277292810734,-0.32042899580760614,-0.10307594273015627,0.01800882455037508,-0.04239431376650114
7.230818115234376,1.7808879493879117,1.5100440007468496,0.05860651010379171,-0.07520897905449651,0.0485727198930804,0.12589214755250566
7.2508181152343765,1.5700044293502364,0.967653734938715,0.07955498250215234,-0.0652244857359652,-0.013626995665353553,0.031920667883855176
7.270818115234376,0.36516287759428984,0.1545177592159677,-0.031112268645791925,-0.14193061539574106,0.06302790089983629,-0.028820095915484362
7.2908181152343765,0.21681466577063385,0.27026479649391294,0.20408175761452238,-0.050978725465019116,0.0014035842947686778,0.06328750841604942
7.310818115234376,0.10524434265297733,-0.05700943175126759,-0.6033667093230596,-0.06186325219056604,-0.02425903203235296,0.05491049141905634
7.3308181152343765,0.004264526802691579,-0.8506910336409832,-0.625986290965047,-0.12860308783880195,0.10586819432868959,-0.013193522179032253
7.350818115234376,0.42586419784981655,-0.7981340833048395,-0.32951910115182903,-0.014282201848982419,-0.07012876780250706,-0.0227127615838985
7.370818115234377,0.2958161646689433,-0.8609671823683865,-1.090445676264586,-0.05952763431979342,0.020687827878615374,0.1043577059610604
7.390818115234376,0.20515031606621764,-1.58971252534481,-0.7901762402602962,-0.03183475790873656,0.0063213485085364274,0.05196164055080771
7.410818115234377,0.2410203179758484,-1.86099612184303,-0.7113479390300398,0.00823691954902968,-0.10361937625591389,-0.03445065598635305
7.430818115234376,-0.04054066975316001,-1.5397671807452575,-1.24497096061727,-0.027100177752156143,0.023445563654950888,0.09452544180842402
7.450818115234377,-0.2856894145430303,-1.706310913643276,-0.5661528042331938,0.04870154944194625,-0.07568303291607176,0.07809055734778271
7.470818115234376,-0.4864005798857063,-1.732708745550394,-0.7918089443917168,0.027283010283201885,-0.05230033860156554,-0.016713516379098767
7.490818115234377,-0.6536778597483964,-1.316361253285409,-0.6602789228400932,0.0070426136644850925,0.015879318342522666,0.02495393847403164
7.510818115234376,-0.5568950280400919,-0.9075167224829591,0.0258856695413113,0.0829862616211674,-0.06480150060946184,0.055934964186350626
7.530818115234377,-0.5891155710423485,-0.8706471058515676,-0.124506236776963,0.025443415056333976,-0.005137858780012048,-0.006321813850237803
7.550818115234376,-0.37498550044936285,-0.613154346210618,0.1585304364252698,0.024784789888401364,0.02010293224981253,-0.03964387226516851
7.570818115234377,-0.25934632649716605,-0.11272974253469602,0.49150776711213806,0.05621601768191533,-0.03525958931975605,-0.004596048724638931
7.590818115234376,-0.33925608174855704,0.05348961734283425,0.3147979921429216,0.018517726855737382,0.03663854989301505,-0.0004884396437827825
7.610818115234377,-0.15097172837433553,0.18204283079431086,0.5750317248708868,0.01846740587875741,0.013821712974223311,-0.05187246454570328
7.630818115234376,-0.059982169895367025,0.5430529572402476,0.5399117081639462,0.01860910694124857,0.011667929365099935,-0.03136926764431371
7.650818115234377,0.024783436869857865,0.6921919002396345,0.44559252675022093,0.004812030843085345,0.031960271438133306,0.013000025482872475
7.670818115234376,-0.07588774482287786,0.6544463465600258,0.5489181229977542,0.00821947520650843,0.014214970222802251,-0.03032445499453356
7.690818115234377,-0.10894790691526346,0.7583960337522505,0.4121207743717202,-0.014257660094344156,0.02424806965856685,-0.02460625302169177
7.710818115234376,-0.10650921081433651,0.9175538296934382,0.38076116502812063,0.0008345492559640389,0.016460787069342613,0.016755750265897127
7.730818115234377,-0.18917057330756626,0.8190812603423917,0.43176115580946695,-0.008722958657385056,0.000553068255576549,0.0016363681174186271
7.7508181152343765,-0.28213350101418555,0.7625861081946907,0.31185447522943804,-0.0202827832443021,0.01368042542173517,-0.02108487753638325
7.770818115234377,-0.20434482524679037,0.825837207311476,0.36234331394523334,-0.010715143488192093,-0.018102567144362095,0.009709759005839919
7.7908181152343765,-0.14082631807800963,0.7571696230357302,0.1409680734320635,-0.0036278335864487056,-0.013849636426117107,0.01747252226874891
7.810818115234376,-0.04350973397776926,0.4901323455101299,0.09100002883828266,-0.021335438207875833,-0.009646233863213267,-0.008072938511995876
7.8308181152343765,0.1284812234135759,0.3944241451861361,0.07087358387098296,-0.004998456734529576,-0.021487768005740857,-0.008783446254024744
7.850818115234376,0.2628807333819058,0.33283225465005895,0.015743444726686498,-0.00750990442440966,-0.02520314014797008,0.009097856987350333
7.870818115234377,0.36385217576133005,0.14156268234093528,-0.006106334448324079,-0.007482816009278424,-0.009417495405908884,0.007056093066169512
7.890818115234376,0.3714179162101608,-0.023548805915428614,0.10549098553982696,-0.00400670678422377,-0.027352273746955924,-0.01639799643355435
7.910818115234377,0.39887043200293204,-0.03510961893847333,0.05258401246773172,-0.011052516825965095,-0.007631359222912774,0.010310187794404208
7.930818115234376,0.43827341595127906,-0.13827398076716405,0.09538749978606258,0.0038617820947927785,-0.021226053987395136,0.01781069142903272
7.950818115234377,0.5013152841121145,-0.3243781650269159,0.07879530014510563,-0.011389936280810338,-0.00838478972104255,0.009707353638904228
7.970818115234376,0.4115613381126867,-0.284366053902888,0.05169815527468556,-0.004769644286990539,-0.005257080957456494,-0.012243836458564063
7.990818115234377,0.28932506589143614,-0.2567702732403747,0.021623541680473604,-0.009633090590364357,-0.011924641375406045,0.029389454838234033
8.010818115234377,0.37171361988667445,-0.2959537635961357,-0.08095123163207994,0.007174595105989766,0.004598906238347951,0.04148465518317054
8.030818115234377,0.07832234549470476,-0.4367154573332706,-0.021530799916291556,-0.020810137204048593,0.0010637237019006196,-0.01900665683102214
8.050818115234376,-0.14761211920457218,-0.17378649542438146,-0.033131912691664774,-0.0020948539367157417,0.0038238484371780437,0.0075842094509674055
8.070818115234376,-0.1950436649451548,-0.1307718888909962,0.022227818266598857,0.0057692874539727835,-0.006261711110560566,0.06732571271279353
8.090818115234377,-0.3681460383124017,-0.33392719111374436,-0.039686442663623187,-0.0021207640490978267,0.006672475959864733,-0.009262860840102732
8.110818115234377,-0.38597421698998086,-0.25094457244182516,0.1291221310812201,-0.019167182696754728,-0.003716541964068477,-0.027753783791080334
8.130818115234376,-0.4430485176829911,-0.005033900412157481,0.09270605281946284,0.01853372250415334,-0.002208231574975166,0.03674225707268936
8.150818115234376,-0.5114205092974116,-0.19892628256762854,0.17863249432296402,-0.011326603344962303,-0.005968855865733204,0.005687300203839509
8.170818115234377,-0.42809894628835954,-0.1887849867452375,0.21097014753310223,-0.009676594784986075,0.005953489152649816,-0.05154990909401744
8.190818115234377,-0.37131618415934525,0.033111249466598165,0.390374210525819,-0.010497692520871123,-0.019440142088254942,-0.0012605210545946618
8.210818115234376,-0.2693152765322043,0.08949239705116369,0.3136996330744473,0.003452429849259476,-0.003205636390756404,0.0241928839792968
8.230818115234376,-0.21945249356578744,-0.08493630142113487,0.39951027914984544,-0.026107397713253124,-0.00810913794022536,-0.03698738770414228
8.250818115234377,-0.05797466692818976,0.004546427630565533,0.37947547076960475,-0.017971473809292062,-0.00791998501303589,-0.019095777909201226
8.270818115234377,0.22212262185400125,0.17559403402133014,0.31732773277443066,-0.014893074038618068,-0.013137053712789842,0.02343525372258382
8.290818115234377,0.1631285600476228,0.0007040953892822743,0.2527769507675615,-0.024259761416062713,-0.015518908268711116,-0.01395027642550568
8.310818115234376,0.16139025693100825,0.03484838538633495,0.09585413785506479,-0.0287682521160379,0.00218109833584902,-0.0213914547494472
8.330818115234377,0.20370696371722877,0.11723709457963938,0.06149074296197156,-0.015495426044682672,-0.014532182543617414,0.014292648717601173
8.350818115234377,0.2691909956912539,0.0711135587129589,-0.09135205901936687,-0.01300445268858641,0.003199314298185376,0.005823662772371309
8.370818115234377,0.1693095362120561,-0.058771391607281225,-0.14436580242013225,-0.020473337921490566,0.004253427399474303,-0.021703190648408113
8.390818115234376,0.20952393812386705,-0.01192543938489071,-0.11808474255683818,-0.0014848530873045756,0.0025144928500612945,0.0020151632903070817
8.410818115234378,0.206774466414507,-0.012754224597687118,-0.1400969784350619,0.0008448557392535215,0.007863351293077511,0.011602349272987773
8.430818115234377,0.15768765413513214,-0.15150775723840523,-0.09622434064729961,0.002218247510662131,0.005348074488729161,-0.01590133041878093
8.450818115234377,0.2283239519323783,-0.09570455679244373,-0.09872285317771666,0.008267805671064556,0.009268432860663872,-0.00951354216274943
8.470818115234376,0.22170755947018175,-0.015854605195938835,-0.07077027530139941,0.01325031667023703,0.007310578500716757,0.0013350342617307331
8.490818115234376,0.1324118665765033,-0.018952565692479474,0.02225164621481461,0.013836032162364629,0.008608747287991552,-0.0020327677234039613
8.510818115234377,0.09232191908336562,0.03570938890389024,0.08031898704138396,0.01235500512499423,0.0029661898621815863,-0.0007845318363792646
8.530818115234377,0.04622220450026984,0.09197085548800081,0.16419253993897726,0.013759639595534973,-0.0011009891999349554,0.005564862967512351
8.550818115234376,-0.017669946947129842,0.12523300647549473,0.22198905448536807,0.01138467080244971,-0.001772520488905811,0.009897809321465235
8.570818115234376,-0.012923529598401538,0.15423151141751618,0.2597092007214582,0.010538640332416846,-0.009480177884392992,0.009908304356960301
8.590818115234377,-0.08137552381093885,0.14534855296312482,0.2789979082644994,0.004458095565718436,-0.008592668200031066,0.005406977087382103
8.610818115234377,-0.11088889691103794,0.1732114821784596,0.2698340409281868,0.004157006311950877,-0.008388858700540163,0.008724991561201883
8.630818115234376,-0.16442339508184423,0.14994732509961564,0.18900667297578994,0.001503384940933672,-0.01993526149173675,0.008484726717039422
8.650818115234376,-0.25297490972456194,0.051010181603506274,0.1421004038336442,-0.0011789571358270053,-0.005636965494833553,0.0009168365157174288
8.670818115234377,-0.2918659226429417,0.0015278120020108372,0.12488118487322694,0.0005317732553632217,-0.00996216328632472,-0.006186239879056552
8.690818115234377,-0.18480928628949386,0.05205296776918081,-0.0021360815868837323,0.003978169229784908,-0.006760146641002394,9.88280443677014e-05
8.710818115234376,-0.22252169905401892,-0.019008824982848668,0.010913654566300938,0.0010310002274991185,-0.0012321986044461673,-0.008431145032454209
8.730818115234376,-0.27350072121144736,-0.041679332142962294,0.02364718115723404,0.004186474797210919,0.006218820414657066,-0.012630045178985088
8.750818115234377,-0.1491295409661362,0.0034694580573496857,0.06960871695201787,-4.229557061199603e-06,0.00261960611525342,-0.0067865057284153376
8.770818115234377,-0.13630842643121524,-0.049648694951222566,0.08851332752558594,0.009341352834372398,-0.002701059848516194,-0.012753440715514474
8.790818115234377,-0.10971070426562356,-0.09471382073580868,0.0487790375421231,-0.0001016245748335172,0.013958246642832666,-0.015532054998857597
8.810818115234376,-0.08484851188896746,-0.09784672778881964,0.06602718337070602,0.005280430834454452,0.003303425119489104,-0.018417658494528113
8.830818115234377,0.0027728283007387392,-0.04853547915330111,0.04334565966083584,0.005909685621762028,0.008154997823748372,-0.008431290366058223
8.850818115234377,0.06709635910577881,-0.058200277951533805,0.03870367910616506,0.001532316267292599,0.017097097488599052,-0.007953726028481514
8.870818115234377,0.035658029815553466,-0.0635022124928286,0.15693583029224145,0.006077758446500714,-0.0005498834390266267,-0.02028085115236879
8.890818115234376,-0.0286590471806517,0.008065954356046325,0.13278790188831296,0.00239829243648435,0.006119596603176686,-0.009967540008170798
8.910818115234378,0.036289198562382864,0.06426469317144375,0.1400533035408021,0.005545464680191994,0.006125326614081829,-0.00430304401731135
8.930818115234377,-0.09142600888174944,-0.030453738366838096,0.18702922349407497,0.003418075789822157,-0.009979001921246016,-0.016428791778871642
8.950818115234377,-0.011084506441145623,0.010566057809219313,0.10559671745642127,-0.0017165054026248116,0.01423313201277335,-0.01877564290873408
8.970818115234376,0.17208181537579612,0.03729133043496787,0.21897686316944384,-0.0018104362174823558,0.0031899097426024837,-0.0061813027172273475
8.990818115234378,0.12916813726552545,-0.033032771043579136,0.22176916245441772,0.005094386310500463,-0.009771250304099099,-0.013572689232748604
9.010818115234377,0.2519546037531373,-0.039940151558012296,0.15968866455640504,-0.01044505099272834,0.008199332136748236,-0.00610119707836722
9.030818115234377,0.2617926376309593,-0.058567264767423036,0.19417510233475152,0.006568199772892954,-0.008198908688423647,-0.00492972677785946
9.050818115234376,0.172666315436454,-0.14313884716474815,0.1488865583322081,-0.006454323902936364,-0.0041575289415248075,-0.0020502833619096784
9.070818115234378,0.22398583257020496,-0.11647752423948991,0.04035082940238154,-0.0023472753466808115,0.006217303580398402,-0.012756609235170295
9.090818115234377,0.20534772481264246,-0.1202573790183913,0.0989762461592092,-0.0005443540788087539,-0.006007885678966074,-0.007222660043978781
9.110818115234377,0.15167800765913064,-0.11176836242887112,-0.0648680872297118,0.0014169072967487116,0.00995765485178811,-0.003919274669063069
9.130818115234376,0.2530723243568834,-0.07752661852799585,0.012883281720872455,-0.003678285236579671,0.011523694510941582,-0.003988978420179066
9.150818115234376,0.2362153561014722,-0.049625250093058924,0.09505989363764944,0.006040578873122118,0.008352476652207884,-0.006025364913270096
9.170818115234377,0.1949329259481935,0.01923479999426368,0.09839264261318918,0.001628345289131438,0.00721064450047758,0.005826304656266137
9.190818115234377,0.22037250208447257,0.025018272314021265,0.1302254785196542,0.00535175995222939,0.015580791954805587,0.016827054287318392
9.210818115234376,0.14941721858944174,-0.006507570738402412,0.18738520118909846,0.0041084039909716555,0.0031292892939998895,-0.0015377214595173228
9.230818115234376,0.025974683030347015,0.02572958023762442,0.16909639712996202,-0.0018270526576291057,0.014890794162972515,0.004435249831563798
9.250818115234377,-0.01955959940593646,0.11123843342816676,0.2127483796162923,0.00413072980280847,0.00995071456260327,0.01529417624010566
9.270818115234377,-0.15631058216658095,0.07621350530896878,0.23003506235919802,-0.002789565504217855,0.007420038200251123,-0.002570474290470299
9.290818115234377,-0.13835102018631043,0.09902781599045068,0.1415608634140478,-0.007460190247471564,0.013186361360353083,0.0022187013475779686
9.310818115234376,-0.07653132285659693,0.12434264859726335,0.14684793706356464,-0.002223886183320244,-0.0011377921925358567,0.00464900121676606
9.330818115234377,-0.1531968627308333,0.10061415047474462,0.10978024715940174,-0.0074689727343290584,0.0021440511732391597,-0.004212190272325681
9.350818115234377,0.03876180790193305,0.1937849072739159,0.031995393241860216,-0.005227455018529771,0.00298183883712246,0.012579187226502865
9.370818115234377,0.08287287844359756,0.14918577442989164,-0.0011735456287935784,0.002808545637296879,-0.0061321203490575385,0.023112145235987584
9.390818115234376,-0.013629209015317159,0.047733798023919444,-0.0923829431108133,-0.0022959365361083337,0.0004406947862807371,-0.0015297500357694183
9.410818115234378,0.0575814955868414,0.11700549785081162,-0.07416022774953937,-0.0045398494528649126,0.00521580190237363,0.005652042612713692
9.430818115234377,0.14221478821697603,0.18750670010812415,-0.06522849551904081,0.00981239290961715,0.0025697246666199435,0.028645357592447566
9.450818115234377,-0.0016142336312583274,0.02201263533638073,-0.19627851136511906,0.0015511679792695162,0.00413999139144341,0.0027386849521126907
9.470818115234376,-0.0503102193334038,-0.019290200070787793,-0.11949371914680139,-0.004682635782086028,0.026926826619871617,-0.010544027829499284
9.490818115234378,0.08919684978953096,0.10558564976920436,-0.0124231396855881,0.011424997069595233,0.00840339419975601,0.018176291553366624
9.510818115234377,-0.06870541992293164,-0.052306551442171306,-0.003304193800895066,0.00983623998897066,0.006352924579560552,0.016541841808626803
9.530818115234377,-0.02687865836415036,-0.16206784274191696,0.0008516131894372669,0.0028181144065936325,0.02387077788683314,-0.0045281087333216155
9.550818115234376,0.09793876322384518,-0.08910181075825441,0.04295760703128741,0.010519218531459323,0.013297789633144439,0.005224506811097477
9.570818115234378,0.06564514199797217,-0.12178841969999084,0.14070329288763642,0.010205880967644953,0.0060737825594800185,0.019189694663687112
9.590818115234377,0.1698555209235569,-0.13840579584244483,0.02100536836453123,0.007658393657836871,0.019263345755774756,0.010024004516599563
9.610818115234377,0.09709732145389907,-0.13932768938764634,0.09047061845204706,-0.00415378787452624,0.00827084624939461,-0.007954837666121935
9.630818115234376,0.033815989367701235,0.02427063234300794,0.10274025084119288,0.0002650453037806227,0.02531517966847415,0.01040752087275733
9.650818115234378,-0.04954083715820514,0.09740804507319897,0.14751514492924164,0.0016151700260864153,0.0026988788702837167,0.022602872860598276
9.670818115234377,-0.24020967087225875,0.08185270619607765,0.12583412717532494,-0.005849517224012694,0.00888113285415719,0.005732862201719297
9.690818115234377,-0.3563248245004686,0.1478841398983979,0.17092582375620508,-0.010972839299009303,0.011514064862139697,0.0044656521551328585
9.710818115234376,-0.230229244894165,0.19799973301401397,0.129552583513581,-0.0016788899785133086,-0.006629687403721238,0.02004771277133004
9.730818115234376,-0.2557771429287469,0.06513397127038842,0.01838986637408469,-0.00876438335704587,0.0074894262363927044,0.007958972077898521
9.750818115234377,-0.16673606922637876,0.012710314309159879,-0.11193078313904295,-0.00970768147000051,0.010680200849662402,-0.007637928826661998
9.770818115234377,-0.03807678381571899,-0.01594032618508713,-0.13736817319899455,-0.004071526561627026,0.005389041087045969,0.004848623740899664
9.790818115234377,0.013433463535919558,-0.07977794872441737,-0.2585213804528994,0.004624274572510207,0.005637517765377512,0.00449619176297191
9.810818115234376,0.07931952031948918,-0.16464577032619956,-0.29959439098153784,0.0036980402345028634,0.002337581965228166,0.0011828398216470813
9.830818115234377,0.04492860444102688,-0.13935702249814927,-0.3065415602018735,0.019123627736744364,0.015128028411344712,0.007124004957121537
9.850818115234377,0.03473483385705131,-0.20867740531639697,-0.2232113369288124,0.01510846086643944,0.015518652717139,0.015075562525280051
9.870818115234377,0.16635375478790881,-0.22325303773464625,-0.12363642701976864,0.024543831467524806,0.020004882504055722,0.008354632145750402
9.890818115234376,0.3094207004602293,-0.13161161416567352,-0.041759384266068456,0.017967724416334676,0.020802806940702228,0.005481967957760665
9.910818115234378,0.0839663661677426,-0.10215668311713759,0.023034146227659452,0.027259799302234943,0.0166994043428262,0.007590118777481852
9.930818115234377,0.07716339507812574,-0.008586887548119248,0.04799520352757509,0.013551114274193869,0.04077629312654222,0.015977905069862477
9.950818115234377,0.1438364286965708,0.056045022709651435,0.23429605539024606,0.016315773777986126,0.01853391588051865,-0.009436761211858843
9.970818115234376,0.054694408350370115,0.11238467911379962,0.2605162903120924,0.008524277486952449,0.02214584955597875,-0.0006629524381479237
9.990818115234378,0.11613993615697844,0.15589083432154424,0.1979813268089298,0.003840428421157061,0.03160846729590249,0.021931031742818033
10.010818115234377,0.20214914818802396,0.13851013672809318,0.3678096654374307,-0.000747511167089404,0.01977550030982468,0.007690639289160261
10.030818115234377,0.10896511925395788,0.15505006894028686,0.23685913859541172,-0.002778179604106316,0.021458845883038754,0.0057374122513220325
10.050818115234376,0.12715713885826602,0.13751841064583917,0.14280188395097482,-0.008918164968427103,0.011281052468181615,0.02477919680983438
10.070818115234378,-0.019202579942980635,0.07198188440423939,0.022198210246852274,-0.001353334282283901,0.004325197023221468,0.0023903231579790515
10.090818115234377,-0.11857703773507171,0.06378628192348232,-0.07728443762586569,-0.018952008994390906,0.023186283312934205,0.009990248611214208
10.110818115234377,-0.003078312851132903,0.1008676479148869,-0.06372506618199499,-0.0023055616733847067,0.01744412018781646,0.024129002656729612
10.130818115234376,-0.039752936988467415,0.07098439478975056,-0.05688365992276087,-0.010093424657112467,0.02234557431261638,0.016833635520246793
10.150818115234378,0.03769065813563173,0.14042908252540515,-0.2074056235785359,0.0005781630429482306,0.0058954824425294676,0.011615002107448001
10.170818115234377,0.07022857440398275,0.21507382663540378,-0.30410717183967745,-0.008132662145350538,0.03111352843904333,0.039982643162549736
10.190818115234377,-0.18123635288873052,0.1304433695388992,-0.13727082820354516,0.004036936910215308,0.011514893459363656,0.008116465381205128
10.210818115234376,-0.26058563218442743,0.06458234427153908,-0.1273777350886228,-0.010961156967682975,0.014245818855478834,0.004562627429848141
10.230818115234378,-0.30753166655795033,0.21576394820583644,-0.1951818518558274,0.008149053080031454,0.027289210237884203,0.009307242767921496
10.250818115234377,-0.47992759652538935,0.12295991908244927,-0.08088652366938795,-0.010205448431487173,0.029907772435533022,0.00514085764998136
10.270818115234377,-0.3078759996693444,0.13934382330421813,0.025560634159218314,0.0015011888444585544,0.02889583390040682,-0.003328662833252167
10.290818115234377,-0.2390382647657839,0.09282128722003871,-0.006899059913782923,-0.007635701514212389,0.020822687382212393,-0.004469484281958999
10.310818115234378,-0.06764718771970722,0.055923431361747857,-0.0723543409552584,-0.0025611659321902185,0.03038656303807568,0.006389581057980727
10.330818115234377,0.020215504461869472,-0.029921935546173055,0.012270623722857841,-0.007524955978998618,0.017858704933570488,0.010576995956938201
10.350818115234377,0.020700743515425977,-0.030991473011769573,-0.15404640964506,-0.0026351452793304158,0.020955636125671955,-0.003835736715098683
10.370818115234377,-0.0941213025088061,-0.020845352869754058,-0.17640906826254585,-0.02035408474620873,0.01957516846454005,0.005604570707418402
10.390818115234376,0.01649094951574082,0.09010248857801166,-0.1410145728904544,0.006757164142366217,0.02097946234354581,0.02692573620279746
10.410818115234378,-0.09043337424059565,-0.028074541408327127,-0.2547005680159903,-0.014748986883235723,0.008815733787105989,0.007840617633489451
10.430818115234377,-0.29525981064436035,-0.11040855669520265,-0.3380800583185389,-0.006642155314624625,0.03055927609527259,-0.021533113158300348
10.450818115234377,-0.08224906302431059,-0.008982552657382771,-0.2725767580199055,-0.00839706583579734,0.014658034211876163,0.011980314650038295
10.470818115234376,-0.2878279352035919,-0.06518656249625428,-0.24829571540928813,0.007806641921277694,0.014158624817217871,-0.006517793216670496
10.490818115234378,-0.3090783661638421,-0.11459530317876272,-0.25831105274955823,-0.012331861765647883,0.0303022067671842,-0.02001055464480903
10.510818115234377,-0.0424403004598339,0.0645223087068595,-0.2778261788041445,0.012062676945919443,0.03321386376020557,-0.0052685853182839176
10.530818115234377,-0.23325858106512737,-0.10928804863450764,-0.13478111143353425,-0.0028665983038506,0.01978287054071945,-0.006927507202048529
10.550818115234376,-0.1723629694293321,-0.049209353389191926,-0.3314377804430222,0.014264308595441985,0.03442073214213764,-0.028544674258571552
10.570818115234378,-0.033436892095794576,-0.09605088637452369,-0.2256055901741187,-0.011344409134365805,0.023705840631865586,-0.012268778227249779
10.590818115234377,-0.06207634016030071,0.002672867359622318,-0.3462887658118047,0.021508549950067464,0.03984522542094959,-0.02421945518090778
10.610818115234377,0.28944268995079353,0.03672772555875429,-0.32578945745476484,-0.007933620357822043,0.02803901432484062,-0.0006269465246591474
10.630818115234376,0.2810730975001965,0.11305072657378704,-0.3723373729312751,0.02431040439829676,0.04736213248728146,0.0010348050063331087
10.650818115234378,0.3090886538337705,0.18315042289057418,-0.229258109692814,0.0024311062890580806,0.008298220271723885,0.0028098923024741144
10.670818115234377,0.195139725984645,0.2705309057389122,-0.34405741879587415,0.01864849441908628,0.04554842293947445,0.02951039004826208
10.690818115234377,0.026734770449668384,0.176372414278048,-0.09169390447627741,0.008730709421457976,0.01933106835054318,0.02405343420759281
10.710818115234376,-0.14424584523374887,0.1286179499660987,-0.15491285798084684,0.01903758551134038,0.024210759585729914,0.0075212354332921776
10.730818115234378,-0.25261935487612497,0.025542684605004976,-0.06235925530554806,0.003875718497957786,0.02008919753926366,0.00905194461951359
10.750818115234377,-0.2887099245029379,-0.017820693557966946,-0.11958883300063466,0.0191352832416344,0.0375022920098156,0.004097152899604143
10.770818115234377,-0.049702076953506764,-0.08301782854571037,-0.10718575392868676,0.0018051498542951043,0.021675560107381024,-0.002521969748032489
10.790818115234377,0.11058593126262102,-0.09004546116723368,-0.10603586337385437,0.006274420573915303,0.03611700897532669,-0.004079403406727567
10.810818115234378,0.3179404584989452,-0.04199850926148922,-0.02975524211843713,-0.0032700852480794422,0.041096608644033535,0.00620886705880429
10.830818115234377,0.4268044184290373,-0.03352681695039437,-0.016921429960516786,0.0018556443846507629,0.01734933212617964,0.012703929129309222
10.850818115234377,0.46439914682667804,0.0656337606803822,-0.021138238829760292,-0.006014105765567913,0.021560330193986694,0.027339316027599217
10.870818115234377,0.2997299667490439,0.13002819415625355,-0.08847218951507085,-0.004162925617137286,0.0249601466426941,0.03550717009779928
10.890818115234378,0.1311017091803654,0.0631501347850066,-0.03965516099079684,-0.010026650201690267,0.004162720817027384,0.035555633217098113
10.910818115234378,-0.24035784546858208,0.11602369736080065,-0.13550113606562825,-0.009629467644916966,0.03570804807096788,0.025989271579141396
10.930818115234377,-0.41063128774571067,0.034167635876490306,-0.07855330156614669,-0.02059417644470268,0.03021489740424481,0.024671019186564773
10.950818115234377,-0.456578441192791,-0.02567317181401409,-0.07372438795005601,-0.011736893765424179,0.013439487792371156,0.006864473388712942
10.970818115234378,-0.41479139048143493,-0.0028760725441717093,-0.1020777243537551,-0.025561771022740952,0.04109499850798829,0.008590688861716924
10.990818115234378,-0.4066034169659219,-0.008906891953493638,-0.14854325644331054,-0.015662610021021272,0.025420377983571916,0.0017968485199806397
11.010818115234377,-0.010316229245550312,0.008300591311127082,-0.14503171731729847,-0.021066928193959316,0.02990673672003736,0.018742011554042495
11.030818115234377,0.12267327166635941,0.005177444209703905,-0.2744122043536757,-0.012053818692454974,0.02266929411470743,0.013264385819731477
11.050818115234376,0.10175265525962321,-0.043019903514974235,-0.20850922054816975,-0.01909359642217587,0.015519063162689464,0.011499796000698075
11.070818115234378,-0.018550720135010145,0.021259075284086243,-0.29384184491532345,-0.012496777954463814,0.03226935724354604,0.027013630123463257
11.090818115234377,-0.025543854826624378,0.017256146289852795,-0.2677573771036154,-0.012018421020714194,0.02443617358417371,0.030432297107930956
11.110818115234377,-0.23376072938254028,-0.08729557243882981,-0.25990214486289337,-0.010691903436284846,0.022949849543120963,0.007571631838417042
11.130818115234376,-0.3869105783404234,-0.04002710029660978,-0.22535287716939154,-0.014393367996651,0.029147225679814783,0.002990360700421485
11.150818115234378,-0.31787897052938713,0.09935622942036969,-0.2255054313970458,-0.007433889791396167,0.035665347283082634,0.020488308827078337
11.170818115234377,-0.27205172358591634,0.0413739335533548,-0.1593794004683021,-0.009015595175959628,0.02202454305476694,0.00408985090578997
11.190818115234377,-0.1702564592945977,0.11618501067091822,-0.09245779072959592,-0.016975571170920405,0.04171099256619722,-0.005635782862088564
11.210818115234376,0.002101226342572221,0.18688334247426616,-0.0386379353933914,-0.008746896374084514,0.026034800429950915,0.015602185198351874
11.230818115234378,0.057360690214369334,0.12924505559891297,-0.003703479928783513,-0.012098489023685393,0.03754671008582109,0.024119722986856242
11.250818115234377,0.10404294528936059,0.025513733540327294,0.03071998445595633,-0.019166281422895313,0.028645478623363845,0.004862151657798073
11.270818115234377,0.0742497675382594,-0.02300076681794027,0.04694575438759179,-0.018842146931964936,0.027137312169784426,0.01701338356013677
11.290818115234377,0.07043154647709257,-0.08641224682896867,0.0709066192410823,-0.01824902391188698,0.02783154208909348,0.0388951970388771
11.310818115234378,0.047262090858923474,-0.15857680802672725,0.03515908243053478,-0.02306339227619651,0.0232424943379273,0.008959039695357806
11.330818115234377,-0.09167846280687639,-0.22955038538722317,0.007673504574775385,-0.030704073885690852,0.026797874358641408,0.0073194134417017736
11.350818115234377,-0.17381776256509793,-0.16361405512057065,-0.015636896253103428,-0.02092348499767823,0.03579988100293625,0.03671617067706629
11.370818115234377,-0.16401908495053297,-0.29637090039895947,0.016319314180686013,-0.02917165772822389,0.012387145817593245,0.016281843683876408
11.390818115234378,-0.22741726931132797,-0.32056405645660274,0.0004915348925383193,-0.02885325492764117,0.025378448839991474,0.0009428855864004391
11.410818115234378,0.10251735808645956,-0.16506504423574722,-0.14118161743152946,-0.025326421856979524,0.018226486504459113,0.031095000642819035
11.430818115234377,-0.0041861103614590665,-0.17465186249157905,-0.1990848347540928,-0.020443355230946824,0.021780676989312162,0.019249182642259947
11.450818115234377,-0.06904730560575506,-0.1719063821514939,-0.11653599670255707,-0.03221258670613639,0.026425354803753392,-0.002458028006608752
11.470818115234378,-0.33751954274833773,-0.02413716892495546,-0.11558396666794672,-0.021284275387087846,0.02102859474994708,0.001973430123739639
11.490818115234378,-0.2547747003601282,0.08599619035134659,0.047614030083621556,-0.02697505495065246,0.03580065834874322,0.037586549115997334
11.510818115234377,-0.04561297611599783,0.14719048526801856,0.05374413857086052,-0.021799961605438005,0.028692050735332125,0.013769748252961482
11.530818115234377,0.04209724452371785,0.16319867336316032,0.10160826528042999,-0.031278065609527526,0.015306625944396855,-0.0018730419876455268
11.550818115234378,-0.1637666077371306,0.2264462655050476,-0.003995916132210626,-0.03027462491519172,0.04390153068678902,0.036366538925434296
11.570818115234378,-0.02202883573831278,0.2549464976984956,0.20618765108724985,-0.024416010880767305,0.008705996620638133,0.02188604866104814
11.590818115234377,-0.3105231609541139,0.10255497461847132,0.10707527486799978,-0.03647574179676402,0.020182832115926044,0.00889836706513761
11.610818115234377,-0.3332134212748452,0.0702114966553302,-0.03072484521270095,-0.03312723244744971,0.03954895831558957,0.0216200372079785
11.630818115234376,0.09995078975297522,-0.005999472363281183,0.22938068810038903,-0.03736278594624974,0.016154643793733,0.04457267583662226
11.650818115234378,0.013890604024135346,-0.14600803699659018,0.0256842565602303,-0.017105009067021736,0.004033679832503773,-0.003974888180932933
11.670818115234377,-0.14578323089052866,-0.18907886386984013,-0.10356081685311307,-0.05797811054141832,0.043663508394012854,0.004898321411307253
11.690818115234377,0.1661288016142788,-0.009044960455487694,0.022931056241074547,-0.012089414238111532,0.01692193378319816,0.035913998247013315
11.710818115234376,-0.1490733255104421,-0.13692918216228264,-0.02185095494643869,-0.03062386508944005,0.0016659569936333682,0.0068149680165271705
11.730818115234378,-0.2075064635105673,-0.15191079566286986,-0.2049885626725654,-0.040397560968680996,0.04476879836206768,-0.005575186878845634
11.750818115234377,-0.24511640872803123,0.03663169849799569,-0.0023219634027408175,-0.019256233344900512,0.004536700667009379,0.008081931394785566
11.770818115234377,-0.49757362144011497,-0.021225215334544488,0.027480676398689816,-0.022461286656164866,0.00627049036468621,0.014412942505472164
11.790818115234377,-0.57203767160896,-0.03792031609461411,-0.01430222328773401,-0.029414170574545918,0.051584692224785386,-0.00680406358767762
11.810818115234378,-0.3053656358076791,-0.03349109324231906,0.15591537116073487,-0.020614657069186883,0.010166181399450433,-0.00016630087681732285
11.830818115234377,-0.2248284476656689,-0.07304027576931131,0.04455221294822458,-0.020189267500570752,0.02123146570035317,-0.0058691793551748275
11.850818115234377,-0.23662963939406503,-0.055237806670642826,0.08818020793221674,-0.032629101283403655,0.03138499341119679,-0.026854379752082654
11.870818115234377,-0.16228632234683854,0.13056056730744486,0.07148243132357777,-0.02332463515714165,0.021275540480440256,-0.01437595107549531
11.890818115234378,-0.030874435724058603,0.31039139615060446,0.036072274382518546,-0.02601535030297512,0.02951799049247484,0.0033885138561998637
11.910818115234378,0.11054716178721107,0.32871898688619555,0.0764952830938463,-0.03153866101713823,0.038068463354214495,0.01050927549630637
11.930818115234377,0.363220978714039,0.31998402918175367,0.1225236258301186,-0.02257744472609539,0.0123532837749537,0.017137293187951336
11.950818115234377,0.2744611286884491,0.260328614423019,0.13883929789759136,-0.03426325424521922,0.03055252401758217,0.018525331426055006
11.970818115234378,0.17194367975181118,0.2103174077519486,0.14654958551225186,-0.028916444992261654,0.026130572042966205,0.02066456951656424
11.990818115234378,0.13023779076043304,0.09644448374161073,0.14817322213495693,-0.027045711681822432,0.01569987483832088,0.03195422663223975
12.010818115234377,-0.03405758139371036,-0.04389562771840007,0.08623463521306123,-0.031634059191403156,0.03509364369903346,0.011268817595473966
12.030818115234377,-0.031048354190394086,-0.08137908148897291,0.09547737558199301,-0.03286090159701265,0.02167500063616263,0.007644614560918568
12.050818115234378,0.02931745721261192,-0.10668750008226112,0.08099812932181204,-0.025724527966059306,0.030783989356602322,0.024336186462571272
12.070818115234378,-0.012456791653767726,-0.24565456685566198,0.07246063046742936,-0.03097229662145963,0.028273555044639635,0.012075066488257647
12.090818115234377,-0.030760417155330545,-0.318704615708079,0.03702796233441851,-0.030394116216943965,0.015827656012602956,-0.005570696881648045
12.110818115234377,0.06654846070351542,-0.25104674524684445,0.029302293960559687,-0.025101750532711787,0.020358892450079807,0.018022682361996046
12.130818115234378,0.014252327575999183,-0.2233289794813634,-0.02392945768880108,-0.020414938557950058,0.005892882170526249,0.01470574030851048
12.150818115234378,0.06381088986170473,-0.17381561363230058,-0.1278265307796244,-0.02637880472375732,0.02649918463561937,0.012287316685846619
12.170818115234377,-0.13527282371440144,-0.1379022467699147,-0.019312635755515044,-0.021263044038908347,0.01956831888052331,0.012613654104039616
12.190818115234377,-0.17653144206578877,-0.09378999118147258,-0.038874337380687,-0.011677551129470023,0.006936484662577032,0.0187359921591577
12.210818115234378,-0.3138674219832741,-0.13224657139299179,-0.014884720489765912,-0.017987107859019063,0.03354374940507311,0.020896370881487006
12.230818115234378,-0.31558577978334185,-0.1669117203076145,0.12602189988489726,-0.012181208301880443,0.023648018924535445,0.008862425093907859
12.250818115234377,-0.08657728537161095,-0.11288310301513954,0.14131853601173078,-0.009706846898122803,0.02044932703893309,0.020019147086170027
12.270818115234377,-0.13722067437437968,-0.14607676803967987,0.1804995557782861,-0.013350982372611854,0.03476364400805747,0.01544073647342925
12.290818115234377,-0.0629735796631609,-0.18687218992874086,0.21366448560599555,-0.012642384098627878,0.013586798289620183,0.013835025198881036
12.310818115234378,-0.052715870426797276,-0.10163544620747231,0.1768565255081281,-0.007072494612495809,0.020927765428927585,0.01235676889336603
12.330818115234377,-0.17856861169903154,-0.09372463010050422,0.17004957592388303,-0.0191468921707333,0.029169401346117972,0.010420368229133269
12.350818115234377,0.007181059463886976,-0.0415596077683958,0.22116288971910458,-0.008692910522361999,0.03536966824611777,0.02927924128898526
12.370818115234377,-0.030670209391073455,-0.12019456552451588,0.34870206172978363,-0.01651413761144012,0.007920183804796779,0.005847643706596949
12.390818115234378,-0.13094123915289962,-0.09131452673669739,0.29221696780388307,-0.01941496750445943,0.0396807601283724,0.006398838918089549
12.410818115234378,-0.12606165492049626,-0.02932611012296526,0.3005090466770464,-0.017883914488609563,0.014773158672822431,0.02216724093008433
12.430818115234377,-0.20002029772198407,-0.13665383732974756,0.3492657644074445,-0.018851721084899787,0.018113586937211622,0.010208529313361608
12.450818115234377,-0.20059117915592048,-0.07254963085738143,0.31358859004566564,-0.025506240090325195,0.01818105321234276,0.0024090379031753077
12.470818115234378,-0.23960819368360506,-0.027433916513402254,0.25628434386323734,-0.013896465409631948,0.005689101233572169,0.014571120120798517
12.490818115234378,-0.11106904363147393,-0.04903833181732278,0.16452394601302897,-0.01845451389050313,0.006662247889241594,0.023168184719127235
12.510818115234377,-0.06555324782133512,-0.06192150166046229,0.0521610536750884,-0.012616151792106465,0.013146946604119086,-0.00021219046120857005
12.530818115234377,0.10902893119759983,-0.010066778561310493,-0.03755291246387795,-0.012900919810596649,0.010777723202726118,0.01741780558845973
12.550818115234378,0.02596328282901242,-0.032648237314767445,-0.09377144251896267,0.000976864805386303,0.022056471954811217,0.02178729900172629
12.570818115234378,-0.01210185444336906,-0.13349584410339035,0.05613226072153183,-0.002731317874014409,0.012134057056593464,0.008008468021410307
12.590818115234377,-0.11771497733755493,-0.043115643756177935,-0.06376115667075638,0.010031895894715369,0.024237414625071656,0.002597307160306277
12.610818115234377,-0.1503606103816217,-0.030439342542142967,0.022684837324294518,0.008167901528029905,0.015674885769068496,0.012135139305789298
12.630818115234378,-0.0901355488936396,0.02088874494759735,0.05701316542017429,0.015347077283942405,0.041716833299313666,0.012871640961630784
12.650818115234378,0.0011889279431686395,-0.005394609854021685,0.27824166634486686,0.011199740719330716,0.024797025929606815,0.008414609801358917
12.670818115234377,0.10825503678065647,-0.023659537454258254,0.40256553727948574,0.019082858174290188,0.023339719010223327,0.02618102141861231
12.690818115234377,0.09672095458897827,-0.13272966417288207,0.4381494026376881,0.01273336285938029,0.0266396679004062,0.021837748537719425
12.710818115234378,-0.05964193373120385,-0.24130949646971858,0.5159042798480773,0.00573808329777529,0.01724746457666098,0.0011342785150784973
12.730818115234378,-0.049451815472320027,-0.18247351675159515,0.5530940924183945,0.004367986216496635,0.024106174625665378,0.023501980535315
12.750818115234377,-0.04905105351856226,-0.20305513534878722,0.5485681012025037,0.003942810831624139,0.018848104013831697,0.026805886676563518
12.770818115234377,-0.16295698302214603,-0.32764254231129514,0.6177143628230417,-0.00711604105399083,0.007295165889862764,0.00034928836783672116
12.790818115234378,-0.20547499780983594,-0.22180255155828077,0.49740974701657736,-0.0034615065629060287,0.011752603278165928,0.008827937279894706
12.810818115234378,-0.29662624032232066,-0.2457058151640716,0.41909810023489324,-0.006774648056281018,0.007842647261116479,0.022928109576836834
12.830818115234377,-0.11478300915992935,-0.26201702582242475,0.3866950770055289,-0.007968439878324872,0.018127821625414542,0.010014972094548569
12.850818115234377,-0.026076209791376925,-0.24833808640535687,0.3621120927601672,-0.008434468307428023,-0.000406984023454015,0.00482171917177127
12.870818115234378,0.14156588099334902,-0.15879305498955237,0.23177752101142113,-0.0027441784414772453,0.011579717904328126,0.018958433062076698
12.890818115234378,0.0344518098752133,-0.1761438348212667,0.19953814533312073,-0.007922401717531726,0.009966844303713746,0.0063809802192831095
12.910818115234378,0.16250820835728685,-0.06252245217293653,0.19941329182085368,0.0006914122403993368,0.021334392025973866,0.018439753738118965
12.930818115234377,0.09876284222294825,-0.0056609394745539806,0.24745152497446443,0.003195038066738378,0.008320651411114929,0.018615979643328538
12.950818115234377,-0.12257394459780811,-0.027137450719690974,0.272823240596831,0.0027929428753760118,0.019700687615635027,0.008844947206720159
12.970818115234378,-0.11602526874838155,0.00021696190910860336,0.4011093399965467,0.0018395762789339054,0.023792859216900077,0.01789730374941137
12.990818115234378,-0.1898572009686846,-0.009108545371283472,0.45918541752811204,0.011338280388223416,0.012720316563284217,0.014870380362300826
13.010818115234377,-0.29224620869928425,-0.09582204399022132,0.4492890294814362,0.0038747166732521596,0.01847143066527426,0.004340699366855662
13.030818115234377,-0.006935607982502173,-0.006093925519118664,0.4097252712352408,0.007542047764935309,0.022819636946722666,0.01283388211814982
13.050818115234378,0.12186095537709413,0.018296623551490063,0.39801081442315694,0.01028126673653864,0.004326825193993496,0.014060607222326582
13.070818115234378,0.1471039908900741,0.007589237599051736,0.4002188598927287,0.005306947488262044,0.024803479320569893,0.017417924139041772
13.090818115234377,0.08080590361511589,0.04066145702349142,0.4466227243098089,0.007319868703318168,0.012070063873277904,0.014217498508563187
13.110818115234377,0.06062000002647307,0.13051613933974196,0.45449628439230083,0.010903859287380456,0.0011145586755967162,0.02705296568019177
13.130818115234378,0.10257586355188927,0.15813956245435412,0.34880851356798037,0.005952231940163739,0.011469901330830458,0.028239092996932447
13.150818115234378,-0.2748394341133676,0.1037983410506516,0.45444794093480245,0.0031118547986943405,0.010073217831299544,0.0024246907800333515
13.170818115234377,0.17743530502544308,0.3132971320499186,0.26916505029009946,0.008140657074033086,0.006679156304252434,0.04093355993711636
13.190818115234377,-0.010065464727814444,0.19839422095106618,0.3539537147217485,0.013961228837664796,0.004881480798243876,0.023182488657103515
13.210818115234378,-0.2484595947130126,0.07624206095316856,0.29267323108447507,-0.001236416678133519,0.021107492835685873,0.0005226707953682618
13.230818115234378,0.16793502329429563,0.24750372626504102,0.27868392825641336,0.01971225245266822,-0.001469542659672574,0.029244854522939446
13.250818115234377,-0.18283602162196416,0.05279434323743226,0.3721214310619495,0.005716559658435445,0.02674448106196026,0.029989305754066352
13.270818115234377,-0.13230047666658315,-0.047312156528425554,0.3529956384246413,0.017303146698039683,0.003682553010845402,-6.945034430446465e-05
13.290818115234378,-0.056118168862344504,-0.11810209199924779,0.3204439204321099,0.00880332542483909,0.012540911565422965,0.029916179033860946
13.310818115234378,-0.17394005115465397,-0.2160242417387217,0.2779265519667364,0.024082106359423476,0.015387715903547535,0.01380427646750236
13.330818115234377,-0.258495865756329,-0.30806874376148424,0.29676129152780295,0.004242060171566008,0.005399828475501933,-0.0032067100502075705
13.350818115234377,-0.21650776814821424,-0.1569694528019348,0.17691653375743258,0.020529853193542415,0.027488660498993473,0.010142909199719382
13.370818115234378,-0.23036566805862513,-0.163894047511141,0.3940986705421506,0.005259339310618383,0.00866354262265162,0.012733433564251781
13.390818115234378,-0.2860045621719551,-0.08070435227236987,0.3919659663078455,0.015645018337528356,0.026443277400241414,-0.003355621650281904
13.410818115234378,-0.25661088748807787,-0.11847860742366971,0.5790688358219691,-0.005831843821936089,0.007499809298389532,0.010300378175593402
13.430818115234377,-0.24749718402810233,-0.056153538491810394,0.5727010098875467,0.014014173280620972,0.019027124314056232,0.007379245671198535
13.450818115234378,-0.24135224736913005,-0.13828374771876942,0.6334150099763728,-0.01187834545745602,-0.006621300438340775,0.00014988441175425887
13.470818115234378,-0.15571055727245284,-0.10497465997283872,0.40926837108911013,-0.0002547522264810466,0.03089032535349196,0.010876931070605226
13.490818115234378,0.006185859563758821,-0.1189888145510855,0.48731243149771997,-0.008985118319158174,-0.019392523273390177,-0.008008658078127603
13.510818115234377,-0.02803051523130617,-0.0759994981650612,0.18260705451656925,-0.0021114481511618167,0.023437604192190636,-0.003916232270540201
13.530818115234378,0.041555770010535925,-0.007320163704287643,0.21109944706142963,-0.007524218421625183,0.009317260994884531,0.004868347940471272
13.550818115234378,0.04533024964136865,-0.04447606438871606,0.16756764768708715,0.005926296401798357,0.006404680837211478,-0.0027420128277763343
13.570818115234378,0.08885676193604419,0.06570262050690565,0.12932960028771995,-0.001486083796461153,0.03255856818215317,-0.003767547014552004
13.590818115234377,0.15341134188096808,0.010415600084602005,0.2598032289341857,0.0033636061684733888,0.012326560922176258,0.01675602579974253
13.610818115234377,0.1756787198088448,0.024050481563143312,0.268731901756826,0.01792670344390617,0.013980200384755937,0.002116689307360873
13.630818115234378,0.125782305407373,-0.016607577649362805,0.19687000434813026,-0.006068288527484817,0.028565708436647935,0.010504035868479204
13.650818115234378,0.20997471683339772,-0.026129927915102272,0.3496483342673153,0.0185197038424178,0.02050332367106864,0.01701999021868856
13.670818115234377,0.0585174440284735,-0.10785778731106449,0.39651326760821937,0.0054750934353740175,0.00013147328296157968,0.003362109440592549
13.690818115234377,0.011844429214875376,-0.10705816915826061,0.2871721848312751,0.009809182804004864,0.037692783829152775,0.018225388296553173
13.710818115234378,-0.09469056191360493,-0.17706509791003788,0.5435204027666296,0.009159491288617485,-0.008256171965755678,0.003295927943941549
13.730818115234378,-0.2552934335551589,-0.14581432520323762,0.36429870409198645,0.005342909615874148,0.028151692827206455,-0.0060919130320113675
13.750818115234377,-0.10988708586674445,-0.06947224626622865,0.5086187840742559,-0.004089448575285286,0.01079535344962669,0.008369662793974183
13.770818115234377,-0.07258841833156922,-0.007332796809128713,0.47800807259450234,0.012781558858592461,0.0013794869725326465,0.001779519382208009
13.790818115234378,-0.03160388545615148,0.05394570041421976,0.44729747237319023,-0.017350844457540492,0.01922428029665866,-0.002098277297178573
13.810818115234378,0.04871886066471568,0.1737750646478575,0.46598204821118916,0.002024286028520148,0.0028024399889465773,0.011857109768078971
13.830818115234377,0.1627425484978512,0.21875958032519321,0.44901786717177866,-0.010144478377784727,0.007141808980673423,0.029680280293985197
13.850818115234377,0.02218120453310593,0.1239607570434792,0.39007364494297525,-0.011675540060638805,0.010968348124387727,0.00654033837645456
13.870818115234378,0.10157788503351002,0.1762077602866833,0.43731447782590344,-0.01330100074597692,0.0012691540730421082,0.017756941999983355
13.890818115234378,0.01133821606259247,0.20185064606880992,0.32204169265202715,-0.005265871339639344,0.008632062241392322,0.03427078623906602
13.910818115234378,-0.09683601344081287,0.09160606490670502,0.29955328925827457,-0.017710882850843105,0.011023916055839668,0.014065286669367322
13.930818115234377,-0.1280226560267942,0.10110074313555448,0.2199982211735731,-0.010417307151926555,0.0047321415361534615,-0.0004886002661799393
13.950818115234378,-0.12773555504207082,0.10697166140397217,0.22026059098424627,-0.010591817342786258,0.006109589031555991,0.0283475318796947
13.970818115234378,-0.036217600179277026,0.03156193100036426,0.1100778665100999,0.0015574926314511274,0.00576939633514969,0.030415722011656203
13.990818115234378,-0.09265363493928319,-0.12826932208171996,0.14274895595570689,-0.009349364426036441,-0.0009391433825455245,-0.005996055104412186
14.010818115234377,-0.0902491317918084,-0.1115106725402205,0.06230784700590553,-0.0018469033755248092,0.01976013126078162,0.02064096028975943
14.030818115234378,-0.03794998317005887,-0.10631173456212743,0.10498571522884907,0.017424001652669677,-0.008154462731819004,0.03653589900070859
14.050818115234378,-0.26498343540386965,-0.28883112888165274,0.06999457535501621,0.006571718281576034,0.0008376717133439182,0.0011625444004859401
14.070818115234378,-0.33575096182831365,-0.273503771387737,0.18493579278123085,0.012200404910491961,0.005828459223517208,-0.00027885784862242567
14.090818115234377,-0.3386254600741634,-0.13525262422821024,0.2587039588214918,0.025892288041948257,-0.007601830404134104,0.025573009425520297
14.110818115234379,-0.40946873742635076,-0.20508129010313556,0.3424886636440184,0.016399478653274586,-0.0005782916910694933,0.006483414370882227
14.130818115234378,-0.45829643833335276,-0.12852869789944774,0.3661562696532381,0.017239993785125793,-0.007936513321515444,-0.012406147994923702
14.150818115234378,-0.41387454727851286,-0.011235088836416442,0.47566882644809416,0.020814204355675724,-0.02036847133673692,0.016124019842310804
14.170818115234377,-0.6795050198007008,-0.002675938794677983,0.49713638118724895,0.019413246793864008,-0.007118803208395996,0.013278576564825511
14.190818115234379,-0.520348656951346,-0.045311190241249556,0.6533035379843081,0.007832990080203057,-0.026167821903552876,-0.0020525378776498045
14.210818115234378,-0.572310526662488,-0.007087606175883196,0.7311923717917588,0.012713741519325217,-0.026747930391741913,0.00535086473144476
14.230818115234378,-0.6818418965965466,0.05179983387401558,0.8398120233031313,0.0014700391364257097,-0.034903031351191174,0.016377416450327777
14.250818115234377,-0.5171889608929146,0.03209729244241868,0.7977788715469557,0.0020885765590308966,-0.04079271353610334,0.019997649335358178
14.270818115234377,-0.5631049845160451,-0.13055353545675205,0.8219028355883993,-0.008468470509513232,-0.062494093385738005,-0.012973493705330408
14.290818115234378,-0.5461239859551223,-0.04820978963139153,0.6071445199243103,-0.01330838476754612,-0.039220764142845095,0.003818860676156545
14.310818115234378,-0.4831212672946721,-0.06765422387076411,0.6154219445984476,-0.005606001087421183,-0.05410118478951234,0.014390209507852568
14.330818115234377,-0.4822326448580672,-0.2961527724102493,0.6024175353645389,-0.01483833022815431,-0.05161795216154776,0.007852301796433495
14.350818115234377,-0.21717786448383133,-0.2626077935014876,0.5653368934117509,-0.006751617087156112,-0.05599896818219833,-0.012250599612462543
14.370818115234378,-0.06714358956937193,-0.23836972727807762,0.6702887331867905,-0.021024296886241467,-0.05106306279491915,0.010483876839076832
14.390818115234378,0.013074252030889523,-0.20255990030009793,0.7040573594047563,0.0035240980184915996,-0.0655624058273778,0.0035088609971461993
14.410818115234378,0.08352750974570004,-0.24104420710698535,0.6645340833043376,-0.025742989005221064,-0.06348643049047882,-0.0014927733574317777
14.430818115234377,-0.07382616647297571,-0.20758186871352505,0.7812732447984605,-0.006773241782837442,-0.053811278809634315,-0.0019571783477066286
14.450818115234378,-0.1795661426469878,-0.24383838008373354,0.9158099376734289,-0.010891802820462655,-0.0978687872357901,-0.0006818767368749922
14.470818115234378,-0.2079563451572883,-0.17205826657186504,0.6816837959359022,-0.010536083705765186,-0.060132211616959745,-0.008451810595989914
14.490818115234378,-0.015213026994771508,-0.1295533710933515,0.7726183032261135,-0.020141804768967535,-0.08125817410414365,-0.006858127112997183
14.510818115234377,-0.16639797113912508,-0.10206667073698177,0.7217456291551325,-0.00020420111092203785,-0.07756709328498756,-0.017467833759101638
14.530818115234378,0.03175209533855689,0.07026311809817037,0.7663791418057353,-0.025963598454415343,-0.07708515812557153,-0.0036898227835421827
14.550818115234378,0.08732968753990974,0.1248069658466537,0.7760313685253819,0.004565798154462906,-0.10440252927430645,0.00034273261946165954
14.570818115234378,-0.26199590495775804,0.07309474156830469,0.6886827370952305,-0.019293464555302328,-0.10254276319816753,-0.02748907451621166
14.590818115234377,-0.6723316323835122,0.2381561206293311,0.5039885962789253,-0.009713276322137403,-0.10424148019584326,-0.04782763965406487
14.610818115234379,-0.20889907726742526,0.5179887390719286,0.4924633030115469,-0.00348034018519657,-0.08060594287350188,0.03193923665336115
14.630818115234378,-0.2934633443909113,0.27583023231965875,0.6533264071764704,0.012407677289402166,-0.11625484433387392,-0.022548765191081562
14.650818115234378,-0.22425588772657673,0.22902910291078343,0.4098220529260673,-0.009536790894109123,-0.09753211612452711,-0.06425663908637119
14.670818115234377,-0.08383622843001293,0.4873492454318501,0.47308208431392873,0.01693853098847132,-0.08631970411193533,0.006600314256750392
14.690818115234379,0.09079469097876142,0.39348364561943533,0.5500670353204753,0.031451195036940556,-0.10812954190234336,0.008364836811844929
14.710818115234378,-0.2853638056263024,0.19684061627539584,0.4334326427382817,0.012269249118809836,-0.09452243511757755,-0.0768664047506437
14.730818115234378,0.024272806577172804,0.44697304534874155,0.41460588062047016,0.025959723471596727,-0.10148719776484522,-0.016218516719396316
14.750818115234377,-0.18104191542542278,0.4740439863792607,0.5647180976425614,0.058023088193912824,-0.1040413255237056,0.022487990596147107
14.770818115234379,-0.13529532544562303,0.1491980886929817,0.5763853992874123,0.027657638159292036,-0.10964124051464182,-0.03671160040437199
14.790818115234378,-0.22847723018033275,0.13411840139379969,0.5686842306493248,0.04189813800668384,-0.10364981874786533,-0.05834059676973288
14.810818115234378,-0.09997479364679898,0.19821919946404593,0.7239267602479178,0.045692401493904015,-0.11436461542656291,0.011364478276214273
14.830818115234377,-0.1711018130352285,-0.10737277515224763,0.7139848734178935,0.06129051742787347,-0.11306095822928901,-0.02467039798305771
14.850818115234377,0.019689923561353857,-0.3511427609181287,0.6987429329695077,0.031149074150016724,-0.11690703395302791,-0.07101657113272983
14.870818115234378,-0.0808437520011516,-0.28334818599470224,0.7358327630426159,0.05499428944063831,-0.11040548687410472,-0.04263701495788252
14.890818115234378,0.11290677773466286,-0.2882295555049523,0.800229595153099,0.05261606995673503,-0.12894105917050483,-0.018414085093144836
14.910818115234378,0.05224292801737859,-0.4329718665044518,0.7114058014751508,0.047891327779691684,-0.11146309820654274,-0.05699690636347339
14.930818115234377,0.2059099765046857,-0.3110514637127313,0.8023639190559476,0.040173017541387926,-0.1182215639739187,-0.05364598317469751
14.950818115234378,0.16144531399205414,-0.17318763436590723,0.8774363520711901,0.050141545723989996,-0.12198684774537882,-0.018478232562490406
14.970818115234378,0.19926645838056076,-0.22439477672242725,0.9567651764924202,0.03830174767174283,-0.12176137254523738,-0.03274044297768495
14.990818115234378,0.15490519837939287,-0.1976202151455071,1.0308469413845962,0.029190422442754032,-0.128002868683245,-0.04969160283892529
15.010818115234377,0.11636171601363454,-0.10824238414164078,1.0702768437361767,0.0289199865611272,-0.1247816603350292,-0.02357889396315867
15.030818115234378,0.12574941289228703,-0.1395344876219184,1.0692451238364646,0.025035893157559875,-0.12208685608548817,-0.018560320213698505
15.050818115234378,0.20393388531677328,-0.27967488980513844,1.1033758232647666,0.018836672465612877,-0.13151394953047074,-0.04052962139260621
15.070818115234378,0.15509709870277774,-0.2899766420913228,1.053320935294048,0.0184697947377092,-0.1329112398903007,-0.047494894326834104
15.090818115234377,0.14478580378465802,-0.21531345604656796,1.0284579469477344,0.019518567447418256,-0.1270684938977881,-0.02879107098168405
15.110818115234379,0.2694290705715583,-0.24135495178774985,1.0117553893974676,0.022958877853111813,-0.12717429312762107,-0.02421357497070404
15.130818115234378,0.30240398584802547,-0.2702403493302764,0.9872459627773347,0.020920189975153804,-0.1383122430051735,-0.04803202382871611
15.150818115234378,0.2813481316134596,-0.20279297942679536,0.9884812314499385,0.015806306845585892,-0.12442863462382427,-0.04090182564633251
15.170818115234377,0.3592802233138277,-0.10925881197554507,1.0491568461386456,0.02836417427322422,-0.12634559776465887,-0.018665988334618733
15.190818115234379,0.43434879223506523,-0.16985489409417068,1.0265402804612687,0.02387683296733585,-0.12701371545416235,-0.02978668210474466
15.210818115234378,0.34717935585778265,-0.23365215162099193,1.084839089923481,0.022125499602266088,-0.12387891336832774,-0.04755019068575349
15.230818115234378,0.3236203077472855,-0.11749963724090771,1.0919141951369282,0.028131667627358567,-0.12172563316891209,-0.02492544499426142
15.250818115234377,0.2392182536135515,-0.13885779817750107,1.196210256349162,0.031151907663680336,-0.13560971903123906,-0.017105849813475616
15.270818115234379,0.06328081000105516,-0.18141978535911416,1.2213511386042006,0.02672183374787865,-0.12323391539223619,-0.037819280829882854
15.290818115234378,0.10505774879255993,-0.09954324745417448,1.2906177245150798,0.025662069956567304,-0.13948864783410195,-0.035116499386605604
15.310818115234378,0.158187411745512,-0.0793047083594478,1.253444853599443,0.03160700656290746,-0.14162641491120462,-0.01510748119636303
15.330818115234377,0.11053220628567915,-0.10673470145132778,1.220480755415398,0.02193141867307246,-0.1351853988945674,-0.03674493174263597
15.350818115234379,0.12022078904336567,-0.052672557213923714,1.1642653569525059,0.020547353113769786,-0.14300457854997425,-0.03420964828604539
15.370818115234378,0.2218881012511289,0.020703026594956746,1.1530071228348389,0.023622027128721503,-0.14392187748410376,-0.0132275240678094
15.390818115234378,0.2922100998343016,-0.021472548875463973,1.018179962353014,0.01823865890186859,-0.14547861743292007,-0.028563211349358693
15.410818115234378,0.3129664098211735,-0.005071994290808802,0.9328100031068773,0.010268657815802095,-0.13974394558836356,-0.03931629770920178
15.430818115234379,0.3319767898080516,0.04644245908457896,0.860549566312764,0.01629496626558519,-0.1466645737188013,-0.016665539062306806
15.450818115234378,0.26969911716031547,0.00866284248335035,0.7576864713967723,0.01763387269341207,-0.14498909688028905,-0.02251263659025533
15.470818115234378,0.2561530658053409,-0.011607870995658959,0.7118988599046739,0.007543491933150186,-0.13590315990501836,-0.03230894376484742
15.490818115234378,0.135460823203568,0.05402886135066754,0.7138540908347396,0.01907796101527595,-0.14632681131864742,-0.022955025180263926
15.510818115234377,0.15039907832769817,0.12449397018808256,0.6186102186988894,0.017342092570707842,-0.1405399780051446,-0.008247056249751967
15.530818115234378,0.09396363324051338,0.05733971656234018,0.5811763913902911,0.01476580218021853,-0.13832095744914397,-0.02886489500704503
15.550818115234378,0.09680426965805268,0.07578176124474281,0.5102760939488841,0.011593228874424499,-0.1354120681357112,-0.0349683293916998
15.570818115234378,0.020220706814205708,0.08401537478651516,0.4605019800050577,0.01387977493593198,-0.13770262510506842,-0.03219972522092441
15.590818115234377,0.040059491100573746,0.013487118225738164,0.428410986123346,0.01052225333948736,-0.14693126626282546,-0.03332034781889775
15.610818115234379,-0.10974879391702708,-0.015382984159243928,0.3671112114962876,0.012027895861879372,-0.1404248573045239,-0.04714589957416286
15.630818115234378,-0.1435356387018424,0.05948120412817099,0.31833930685803274,0.010100270921650188,-0.14955221223752876,-0.037060065539860645
15.650818115234378,-0.241274367958151,0.09381934831843641,0.2779150069906792,0.019702298761334634,-0.1568282387014069,-0.03035980162976434
15.670818115234377,-0.25474874099893785,0.05562680136281888,0.254108089920637,0.011833301986039114,-0.15880566298092783,-0.03395622926491846
15.690818115234379,-0.3494356589961505,0.07731924459338746,0.18993441669923655,0.01828398249379019,-0.16779557239973608,-0.040782753628365115
15.710818115234378,-0.3343309502435676,0.08418357591445685,0.16364505398981238,0.014627010723497015,-0.17012853425698957,-0.029658626130518687
15.730818115234378,-0.24512156509018707,0.0684563632799817,0.09252677317721136,0.020983020364692743,-0.16105883404394897,-0.039688989243789115
15.750818115234377,-0.17025321302634316,0.023549862392794198,0.007744916736211965,0.011705868609935556,-0.16840247427170263,-0.057625363282497774
15.770818115234379,-0.23443490983547216,0.04877221501525719,-0.05006577797138361,0.01859358192919214,-0.16770320902132108,-0.05169933808788251
15.790818115234378,-0.1916310598828633,0.09606755359786545,-0.05502114683565008,0.020061670302280597,-0.16392214996603413,-0.047477624610399324
15.810818115234378,-0.16519191949070627,0.1237617110270081,-0.17236410415352107,0.020405085632080364,-0.16075405117922034,-0.05496364904567706
15.830818115234377,-0.1694044092257181,0.12108859697349852,-0.1444452512046358,0.024833345719582595,-0.1752428156177671,-0.05430728217746223
15.850818115234379,-0.14010368363896705,0.13348574549475017,-0.24474220001791516,0.028360322446481814,-0.16524057535472614,-0.04941132785127348
15.870818115234378,-0.11038286984300315,0.10052838987145359,-0.22927358127901878,0.02506728244318735,-0.17835446834524396,-0.05624395439918819
15.890818115234378,-0.08545128700611296,0.12521024990583257,-0.3024588194030347,0.0312725815464661,-0.1652422295611301,-0.05849238303544358
15.910818115234378,-0.03112827664625761,0.1467279601684097,-0.3297158803093934,0.024756503905372026,-0.1679518147417331,-0.05529322617592837
15.930818115234379,-0.021051787720617828,0.14488346858752985,-0.40293541945629663,0.03387157691356346,-0.17391336452694547,-0.057551768470805315
15.950818115234378,0.06417268675118606,0.14031377267977463,-0.4228270965204344,0.02823073336887786,-0.17391687461170702,-0.05861745403966426
15.970818115234378,-0.04474642695053076,0.14840735050724993,-0.4707344058500622,0.03595864284386415,-0.19977626441009236,-0.06107369783570576
15.990818115234378,-0.2188145998938785,0.17463433582261284,-0.5530732960000698,0.03143444130416112,-0.18686544655190523,-0.0429886126624949
16.01081811523438,-0.20854133210286319,0.1491915189924116,-0.5283920854346912,0.03652768747156659,-0.20092325518479784,-0.04407900566374205
16.03081811523438,-0.2189068013612066,0.11679026712186169,-0.5810752648361089,0.03416197969676505,-0.20199667473762598,-0.04099509654554163
16.050818115234378,-0.14970911151095162,0.06674267267851086,-0.6257711940853942,0.03895872677155508,-0.2163086115550633,-0.03377469170062832
16.070818115234378,-0.17498439715180417,-0.054690474455998485,-0.5939918316224772,0.03788766448364167,-0.22900460581070595,-0.04592021424530465
16.090818115234377,-0.04300835776625236,-0.04226734160475649,-0.6677259946223364,0.040661519165791256,-0.21248497692965557,-0.047114544292175466
16.110818115234377,0.0540414695792804,-0.0790395743931557,-0.6724009429612878,0.04342051373987924,-0.23152848782057905,-0.04596587213171237
16.130818115234376,0.1484988165662892,-0.12069974793238022,-0.7685112474262659,0.049846743308001686,-0.21719580240800543,-0.04144536753665116
16.15081811523438,0.21722456670772694,-0.14968483167578034,-0.7067551014793066,0.04568967676212913,-0.22136474316597565,-0.04805925374932679
16.17081811523438,0.27183422774140287,-0.09573002172628882,-0.6717536532728707,0.05753743728115834,-0.22925325132989377,-0.043124521245128694
16.19081811523438,0.4097018995904227,-0.02419093695993336,-0.6816690383929429,0.05291889810164681,-0.22717629244468404,-0.021839302675394683
16.210818115234378,0.2893160226698593,-0.08444567051413092,-0.6123100233911337,0.06266712108513361,-0.24526478205094238,-0.03488521553952915
16.230818115234378,0.07945290985743735,-0.0883386278201779,-0.615381373182496,0.05460902498023088,-0.23849594106815344,-0.02996695855293717
16.250818115234377,-0.032058803341748154,-0.024440961947254005,-0.5491226811905221,0.06774881279224905,-0.23998799327658749,-0.013668582086317056
16.270818115234377,-0.12442312235675107,-0.07919083907158968,-0.4637799948438986,0.06733441338100445,-0.25795959151592496,-0.027455840511655345
16.290818115234377,-0.16855614010247244,-0.0978487675196147,-0.49798629813949513,0.060663339710220615,-0.2309493853117499,-0.039028431340433024
16.31081811523438,-0.19919204779406033,-0.030852209275101673,-0.4482623492032478,0.06665337411007032,-0.2508429335831428,-0.04313807885352843
16.33081811523438,-0.2465318440963473,-0.032171276849554606,-0.37596063113304806,0.06901372157224761,-0.25680959191021263,-0.02861866851447671
16.35081811523438,-0.34886892527450414,-0.018948838262230466,-0.34664759212615476,0.06957092957780482,-0.2517284554219663,-0.04054128445239362
16.37081811523438,-0.38791173992528744,-0.012933741860739478,-0.2767832026702123,0.0685612559469808,-0.2733624316728198,-0.052576055465671026
16.390818115234378,-0.34422762682828606,0.031550955909199895,-0.24229531151311562,0.07316522421145254,-0.2773049114606672,-0.03575796498860093
16.410818115234378,-0.3118576026989344,0.06660952173807454,-0.1862823561303035,0.0727324066390008,-0.2724261856375361,-0.04001082599540919
16.430818115234377,-0.28295907885560106,0.037119749969266896,-0.17788569977243934,0.06657591049639683,-0.28735096935982846,-0.054678845064268664
16.450818115234377,-0.21296258283337247,0.08084088896719409,-0.11804976635583206,0.07292230285208758,-0.29001522121950113,-0.05074543087201379
16.47081811523438,-0.06473384358316793,0.07658794192685772,-0.18238199639980746,0.0687527365427938,-0.2935964358653985,-0.042199456497010956
16.49081811523438,-0.14312077427578238,0.08269338203728338,-0.2313683809331483,0.06143354927684967,-0.28743805380377685,-0.07919511254728791
16.51081811523438,-0.23981301915584144,0.22695484151272494,-0.23737809646229888,0.05281587284916056,-0.2911413695956926,-0.09391406498721527
16.53081811523438,-0.17632843259281644,0.39179319361641485,-0.28422348341919124,0.060937864361384576,-0.2936440526660622,-0.046859201458273415
16.550818115234378,-0.25384331992982134,0.3064702671970795,-0.3450555910579575,0.054821378366940975,-0.3003544523341624,-0.08284153905391772
